timestamp,accel_x,accel_y,accel_z,gravity_x,gravity_y,gravity_z,gyro_x,gyro_y,gyro_z,orient_x,orient_y,orient_z,orient_w,mag_x,mag_y,mag_z,mag_cal_x,mag_cal_y,mag_cal_z,label
1761153354.2076151,-1.8598583936691284,3.098567008972168,9.535065650939941,-1.7631587982177734,2.9842936992645264,9.177220344543457,-0.011001708917319775,-0.002993239788338542,-0.0007086033001542091,-0.058151233941316605,0.1699124127626419,0.9633651375770569,0.1991879791021347,-76.42500305175781,-11.381250381469727,-96.4000015258789,,,,wave hand
1761153354.2146149,-1.8359220027923584,3.071040153503418,9.527884483337402,-1.7809258699417114,2.995478391647339,9.170143127441406,-0.03787977993488312,-0.0042149703949689865,0.010286970995366573,-0.05893048644065857,0.17070357501506805,0.9631670713424683,0.1992403119802475,-76.64375305175781,-11.362500190734863,-96.91875457763672,,,,wave hand
1761153354.2156148,-1.7808682918548584,3.126094102859497,9.54104995727539,-1.7370800971984863,2.9917385578155518,9.179769515991211,0.0036590564996004105,-0.002993239788338542,0.002956588286906481,-0.05679275095462799,0.16998958587646484,0.9634844064712524,0.19893725216388702,-76.3187484741211,-11.33750057220459,-96.84375,,,,wave hand
1761153354.2226207,-1.7665064334869385,3.1488335132598877,9.555411338806152,-1.724624752998352,3.0129270553588867,9.175186157226562,-6.134854629635811e-06,0.006780603900551796,0.0054000490345060825,-0.05599852278828621,0.1709374338388443,0.9634296894073486,0.19861488044261932,-76.26875305175781,-11.3125,-96.7874984741211,,,,wave hand
1761153354.239614,-1.7700968980789185,3.1715731620788574,9.483602523803711,-1.721596598625183,3.0251669883728027,9.171727180480957,-0.02199728414416313,0.015332717448472977,0.004178318660706282,-0.055762991309165955,0.17152917385101318,0.9633894562721252,0.19836589694023132,-76.4124984741211,-11.831250190734863,-97.2437515258789,,,,wave hand
1761153354.269747,-1.7880492210388184,3.132078170776367,9.519506454467773,-1.7252318859100342,2.9955263137817383,9.180768013000488,-0.03665804862976074,0.018997909501194954,0.0054000490345060825,-0.056237608194351196,0.17002436518669128,0.9636116027832031,0.1984485685825348,-76.20000457763672,-11.68125057220459,-96.95000457763672,,,,wave hand
1761153354.2846158,-1.7808682918548584,3.085402011871338,9.555411338806152,-1.7231658697128296,2.9937193393707275,9.181745529174805,-0.008558248169720173,0.015332717448472977,0.0005131271900609136,-0.056156132370233536,0.16990476846694946,0.9636433124542236,0.19842009246349335,-75.98750305175781,-11.631250381469727,-96.6624984741211,,,,wave hand
1761153354.312231,-1.7449636459350586,3.092582941055298,9.408202171325684,-1.7263776063919067,3.0188112258911133,9.172922134399414,0.008545978926122189,0.016554448753595352,-0.0019303337903693318,-0.05608738213777542,0.17124556005001068,0.9634395837783813,0.19827604293823242,-75.92500305175781,-11.287500381469727,-96.57500457763672,,,,wave hand
1761153354.3292232,-1.7557350397109985,3.166785955429077,9.409399032592773,-1.7289812564849854,3.030280828475952,9.168649673461914,-0.014666900970041752,0.01777617819607258,-0.0055955252610147,-0.05612131580710411,0.17186923325061798,0.9633487462997437,0.19816814363002777,-76.01250457763672,-11.53125,-96.95000457763672,,,,wave hand
1761153354.3442276,-1.7940332889556885,3.0865988731384277,9.445303916931152,-1.745775580406189,3.02713942527771,9.16650390625,-0.03421458974480629,0.025106562301516533,-0.011704177595674992,-0.05699313059449196,0.17190039157867432,0.9632750153541565,0.1982503980398178,-76.11250305175781,-11.318750381469727,-96.3375015258789,,,,wave hand
1761153354.3752375,-1.8024109601974487,3.1356685161590576,9.433335304260254,-1.7425799369812012,3.0303406715393066,9.166054725646973,-0.03665804862976074,0.02632829174399376,-0.00926071684807539,-0.056804995983839035,0.1720292866230011,0.9632714986801147,0.19820967316627502,-75.71875,-11.637499809265137,-96.6812515258789,,,,wave hand
1761153354.389223,-1.7294049263000488,3.1356685161590576,9.424958229064941,-1.7396115064620972,3.0411977767944336,9.1630220413208,-0.041544970124959946,0.023884830996394157,-0.01659110002219677,-0.056561555713415146,0.17255790531635284,0.9632131457328796,0.19810381531715393,-76.41875457763672,-11.824999809265137,-96.76875305175781,,,,wave hand
1761153354.4047158,-1.8239537477493286,3.1153225898742676,9.3196382522583,-1.769596815109253,3.043740749359131,9.156434059143066,-0.03665804862976074,0.036102134734392166,-0.017812829464673996,-0.05803023278713226,0.17304259538650513,0.9630033373832703,0.19827605783939362,-75.95625305175781,-11.09375,-96.70000457763672,,,,wave hand
1761153354.43471,-1.8610551357269287,3.1440463066101074,9.331605911254883,-1.7899203300476074,3.0526554584503174,9.149513244628906,-0.041544970124959946,0.023884830996394157,-0.012925907969474792,-0.05895619094371796,0.17374739050865173,0.9628007411956787,0.19837024807929993,-76.0250015258789,-11.40000057220459,-97.40625,,,,wave hand
1761153354.4497018,-1.9005502462387085,3.2038872241973877,9.439319610595703,-1.807204008102417,3.038172721862793,9.150936126708984,-0.05987092852592468,0.018997909501194954,-0.02269975282251835,-0.05993061140179634,0.1732044517993927,0.9627766609191895,0.19866982102394104,-75.60625457763672,-11.425000190734863,-96.45000457763672,,,,wave hand
1761153354.479704,-1.9041407108306885,3.0961735248565674,9.446500778198242,-1.8346432447433472,3.0160939693450928,9.152779579162598,-0.053762275725603104,0.021441370248794556,-0.030030135065317154,-0.06147100403904915,0.17239147424697876,0.9627297520637512,0.19913320243358612,-76.13750457763672,-11.418749809265137,-96.6875,,,,wave hand
1761153354.4947686,-1.9173057079315186,3.1356685161590576,9.460862159729004,-1.8284308910369873,3.010188579559326,9.155965805053711,-0.03910151124000549,0.012889256700873375,-0.02880840376019478,-0.061194900423288345,0.17201822996139526,0.9627902507781982,0.1992483139038086,-76.03125,-11.137499809265137,-96.4625015258789,,,,wave hand
1761153354.5097883,-1.8981566429138184,3.0794179439544678,9.542245864868164,-1.831268072128296,2.9746382236480713,9.167011260986328,-0.050097085535526276,0.022663099691271782,-0.02514321357011795,-0.061647623777389526,0.17021076381206512,0.9630156755447388,0.19957122206687927,-75.85625457763672,-11.46875,-96.7125015258789,,,,wave hand
1761153354.5398934,-1.8598583936691284,2.9992311000823975,9.62363052368164,-1.825160026550293,2.9444799423217773,9.177959442138672,-0.04643189162015915,0.025106562301516533,-0.021478021517395973,-0.061619456857442856,0.16857391595840454,0.9632726311683655,0.19972927868366241,-76.2562484741211,-11.112500190734863,-97.2249984741211,,,,wave hand
1761153354.553892,-1.8275442123413086,2.989656448364258,9.609268188476562,-1.815271258354187,2.9193978309631348,9.18792724609375,-0.04032324254512787,0.03976732864975929,-0.015369368717074394,-0.06137830764055252,0.1671488881111145,0.9635407328605652,0.1997079998254776,-76.15625,-11.350000381469727,-96.41875457763672,,,,wave hand
1761153354.5838895,-1.8179696798324585,3.0123960971832275,9.524293899536133,-1.8019423484802246,2.9117379188537598,9.192980766296387,-0.041544970124959946,0.050762902945280075,-0.008038986474275589,-0.060817260295152664,0.1665826141834259,0.9637197852134705,0.19948850572109222,-75.55000305175781,-11.55625057220459,-97.0562515258789,,,,wave hand
1761153354.5988877,-1.8466933965682983,3.0267579555511475,9.515915870666504,-1.8134889602661133,2.907498359680176,9.192051887512207,-0.05498400703072548,0.050762902945280075,-0.0055955252610147,-0.06145983189344406,0.16648882627487183,0.9637094140052795,0.1994200348854065,-75.70000457763672,-11.300000190734863,-96.5562515258789,,,,wave hand
1761153354.6278834,-1.8694329261779785,2.9908533096313477,9.489585876464844,-1.819277048110962,2.9048993587493896,9.191729545593262,-0.06475785374641418,0.048319440335035324,-0.011704177595674992,-0.061790503561496735,0.16641570627689362,0.9637124538421631,0.1993643343448639,-75.7249984741211,-10.987500190734863,-96.4000015258789,,,,wave hand
1761153354.6438837,-1.8155760765075684,3.1009607315063477,9.444107055664062,-1.804131031036377,2.910494565963745,9.19294548034668,-0.053762275725603104,0.033658675849437714,-0.008038986474275589,-0.06101016700267792,0.1665174961090088,0.9638012647628784,0.1990901380777359,-75.55000305175781,-11.537500381469727,-96.48750305175781,,,,wave hand
1761153354.6598823,-1.8024109601974487,3.0207738876342773,9.454878807067871,-1.789490818977356,2.922743082046509,9.191920280456543,-0.041544970124959946,0.02632829174399376,-0.0055955252610147,-0.06018571928143501,0.16697371006011963,0.9638285636901855,0.19882629811763763,-75.9375,-11.1875,-96.73125457763672,,,,wave hand
1761153354.6888793,-1.7689000368118286,3.1009607315063477,9.4847993850708,-1.7729161977767944,2.931384325027466,9.192380905151367,-0.04521016404032707,0.014110987074673176,-0.006817255634814501,-0.05927954241633415,0.16722746193408966,0.9638708233833313,0.19868072867393494,-75.60625457763672,-11.449999809265137,-97.20625305175781,,,,wave hand
1761153354.7038784,-1.7700968980789185,3.072237014770508,9.474027633666992,-1.75508451461792,2.92368221282959,9.198253631591797,-0.053762275725603104,0.009224064648151398,-0.026364943012595177,-0.058430563658475876,0.16663020849227905,0.9640006422996521,0.19880396127700806,-75.45000457763672,-11.443750381469727,-96.71875,,,,wave hand
1761153354.7338755,-1.7904428243637085,3.017183303833008,9.532671928405762,-1.7369883060455322,2.9287216663360596,9.200085639953613,-0.04276670143008232,-0.0017715092981234193,-0.03980397805571556,-0.057415977120399475,0.1667027324438095,0.9639977216720581,0.19905273616313934,-75.51250457763672,-11.25,-96.8375015258789,,,,wave hand
1761153354.749746,-1.7760809659957886,3.1213066577911377,9.536262512207031,-1.7231788635253906,2.9319217205047607,9.20166301727295,-0.03787977993488312,-0.006658431142568588,-0.05568647384643555,-0.05660749226808548,0.16673807799816132,0.9639512300491333,0.1994793564081192,-75.1312484741211,-11.287500381469727,-96.7874984741211,,,,wave hand
1761153354.7644968,-1.7353891134262085,3.0052151679992676,9.508735656738281,-1.7285125255584717,2.8960587978363037,9.212014198303223,-0.05987092852592468,0.005558873526751995,-0.07767762243747711,-0.05708726495504379,0.16498322784900665,0.9640301465988159,0.2004183530807495,-75.23750305175781,-11.231249809265137,-97.0562515258789,,,,wave hand
1761153354.7946086,-1.8060014247894287,2.9788851737976074,9.480011940002441,-1.7392165660858154,2.877774477005005,9.215728759765625,-0.04643189162015915,0.005558873526751995,-0.0886731967329979,-0.05765368416905403,0.16421067714691162,0.9639247059822083,0.20139533281326294,-75.09375,-11.449999809265137,-96.625,,,,wave hand
1761153354.8095963,-1.7964268922805786,2.966917037963867,9.520703315734863,-1.7630208730697632,2.8500399589538574,9.219822883605957,-0.05498400703072548,-0.0017715092981234193,-0.10089050233364105,-0.058946393430233,0.1631125956773758,0.9637799859046936,0.202602356672287,-75.61250305175781,-11.237500190734863,-97.08125305175781,,,,wave hand
1761153354.8375938,-1.8694329261779785,2.940586805343628,9.515915870666504,-1.789579153060913,2.8307807445526123,9.220640182495117,-0.05987092852592468,-0.005436700768768787,-0.10699915885925293,-0.060283221304416656,0.16249524056911469,0.9635355472564697,0.20386415719985962,-75.4749984741211,-11.006250381469727,-96.5,,,,wave hand
1761153354.8545923,-1.8778107166290283,2.9034855365753174,9.515915870666504,-1.8116028308868408,2.809788465499878,9.222759246826172,-0.0488753542304039,-0.011545353569090366,-0.10944261401891708,-0.061411503702402115,0.1617385447025299,0.9633257985115051,0.20511628687381744,-75.8812484741211,-11.293749809265137,-97.09375,,,,wave hand
1761153354.8688695,-1.8993533849716187,2.9010918140411377,9.556608200073242,-1.818924903869629,2.8044557571411133,9.222941398620605,-0.04643189162015915,-0.020097466185688972,-0.10577742755413055,-0.06166937202215195,0.16161170601844788,0.9631142020225525,0.20613007247447968,-75.6937484741211,-11.175000190734863,-96.7249984741211,,,,wave hand
1761153354.8993044,-1.8873852491378784,2.8951077461242676,9.555411338806152,-1.8373578786849976,2.7871570587158203,9.224531173706055,-0.056205738335847855,-0.021319197490811348,-0.09600358456373215,-0.06260762363672256,0.16099905967712402,0.9629243612289429,0.20721101760864258,-75.2249984741211,-11.256250381469727,-97.14375305175781,,,,wave hand
1761153354.9143107,-1.9352580308914185,2.8699746131896973,9.559001922607422,-1.8561826944351196,2.758615493774414,9.229340553283691,-0.056205738335847855,-0.02620611898601055,-0.0935601219534874,-0.06366878747940063,0.15981729328632355,0.9627939462661743,0.20840507745742798,-75.3499984741211,-11.237500190734863,-97.11250305175781,,,,wave hand
1761153354.929301,-1.9280771017074585,2.852022171020508,9.574560165405273,-1.8723053932189941,2.7587783336639404,9.226035118103027,-0.05131881684064865,-0.028649579733610153,-0.0984470397233963,-0.06431533396244049,0.16008533537387848,0.9624850749969482,0.2094249278306961,-75.36250305175781,-11.206250190734863,-96.79375457763672,,,,wave hand
1761153354.960321,-1.9771467447280884,2.8891236782073975,9.582938194274902,-1.8975030183792114,2.7523865699768066,9.222795486450195,-0.04276670143008232,-0.027427850291132927,-0.09722530841827393,-0.06547600775957108,0.16013050079345703,0.9621549248695374,0.2105446606874466,-75.34375,-10.824999809265137,-97.53125,,,,wave hand
1761153354.9877558,-2.0070672035217285,2.8472349643707275,9.525490760803223,-1.9233577251434326,2.7398781776428223,9.22116470336914,-0.04521016404032707,-0.028649579733610153,-0.09722530841827393,-0.06673254072666168,0.1598711907863617,0.9618604779243469,0.2116895616054535,-74.95000457763672,-10.881250381469727,-97.2874984741211,,,,wave hand
1761153355.0192075,-2.0262162685394287,2.801755666732788,9.506341934204102,-1.9474631547927856,2.7175896167755127,9.222700119018555,-0.053762275725603104,-0.031093040481209755,-0.09478185325860977,-0.06800971180200577,0.159086212515831,0.961650550365448,0.21282486617565155,-74.67500305175781,-11.425000190734863,-97.33125305175781,,,,wave hand
1761153355.022207,-2.1028127670288086,2.769441604614258,9.612858772277832,-1.9621384143829346,2.685596466064453,9.228959083557129,-0.04032324254512787,-0.03475823253393173,-0.09233839064836502,-0.06890874356031418,0.15769055485725403,0.9615530371665955,0.2140118032693863,-75.20625305175781,-10.84375,-96.83125305175781,,,,wave hand
1761153355.0342062,-2.078876495361328,2.7586703300476074,9.59610366821289,-1.9805307388305664,2.6604912281036377,9.232301712036133,-0.020775552839040756,-0.03842342272400856,-0.08500801026821136,-0.06992790848016739,0.15669865906238556,0.9613829255104065,0.21517083048820496,-74.70625305175781,-10.86875057220459,-97.3375015258789,,,,wave hand
1761153355.0652218,-2.0836637020111084,2.7287497520446777,9.5949068069458,-1.9886897802352905,2.6277174949645996,9.239931106567383,-0.026884205639362335,-0.04208861663937569,-0.08622973412275314,-0.07053043693304062,0.15518051385879517,0.9613452553749084,0.21624000370502472,-75.20000457763672,-11.112500190734863,-97.5687484741211,,,,wave hand
1761153355.0792117,-2.0752859115600586,2.6748929023742676,9.639188766479492,-1.976776123046875,2.5962295532226562,9.251380920410156,-0.03543631732463837,-0.03597996383905411,-0.07156897336244583,-0.07014548033475876,0.15346509218215942,0.9614645838737488,0.21705728769302368,-74.7249984741211,-10.925000190734863,-97.08125305175781,,,,wave hand
1761153355.109194,-1.9962958097457886,2.643775463104248,9.726556777954102,-1.9495420455932617,2.591041326522827,9.258611679077148,-0.014666900970041752,-0.03353650122880936,-0.0581299364566803,-0.06875262409448624,0.15289360284805298,0.9615542888641357,0.2175084799528122,-74.54375457763672,-11.1875,-97.1624984741211,,,,wave hand
1761153355.1241982,-1.9232897758483887,2.7431116104125977,9.670306205749512,-1.9329781532287598,2.606930732727051,9.257624626159668,-0.002449595835059881,-0.011545353569090366,-0.053243014961481094,-0.06768610328435898,0.1535326987504959,0.9614560604095459,0.21782714128494263,-74.61250305175781,-10.956250190734863,-96.7750015258789,,,,wave hand
1761153355.1391966,-1.9412420988082886,2.8412508964538574,9.5398530960083,-1.9337031841278076,2.6232504844665527,9.252861976623535,-0.023219013586640358,0.0031154127791523933,-0.05568647384643555,-0.06747905164957047,0.15441186726093292,0.9612432718276978,0.2182084023952484,-74.6624984741211,-11.15000057220459,-97.15625,,,,wave hand
1761153355.1701958,-2.003476858139038,2.863990306854248,9.468043327331543,-1.9469122886657715,2.636183023452759,9.246414184570312,-0.0488753542304039,0.011667526327073574,-0.0679037794470787,-0.0679125115275383,0.15528349578380585,0.9609455466270447,0.21876616775989532,-75.09375,-10.5625,-97.57500457763672,,,,wave hand
1761153355.1841972,-2.086057424545288,2.816117525100708,9.381872177124023,-1.9710599184036255,2.6403372287750244,9.240111351013184,-0.023219013586640358,-0.002993239788338542,-0.07523415982723236,-0.06894677132368088,0.15586112439632416,0.9605796933174133,0.2196371704339981,-74.95000457763672,-11.006250381469727,-96.90625,,,,wave hand
1761153355.214189,-2.1123874187469482,2.746701955795288,9.564986228942871,-1.9775352478027344,2.671457052230835,9.229776382446289,0.04886308312416077,-0.045753806829452515,-0.07034724205732346,-0.06878988444805145,0.15761034190654755,0.9601189494132996,0.22045081853866577,-74.8375015258789,-11.08750057220459,-97.70000457763672,,,,wave hand
1761153355.229394,-2.045365571975708,2.817314386367798,9.593709945678711,-1.9699349403381348,2.7009923458099365,9.222803115844727,0.08551499992609024,-0.0665232241153717,-0.06912551075220108,-0.06795032322406769,0.15909506380558014,0.9597671031951904,0.22117558121681213,-74.9625015258789,-11.02500057220459,-96.71875,,,,wave hand
1761153355.2443914,-2.0489559173583984,2.822101593017578,9.610465049743652,-1.9717937707901,2.7174549102783203,9.217569351196289,0.06841076910495758,-0.07996226102113724,-0.05690820515155792,-0.06774692237377167,0.16001760959625244,0.9594757556915283,0.22183582186698914,-75.07500457763672,-11.03125,-96.92500305175781,,,,wave hand
1761153355.273924,-2.1171746253967285,2.7838034629821777,9.603283882141113,-1.9760158061981201,2.706357479095459,9.219929695129395,0.046419624239206314,-0.08118399232625961,-0.03613878786563873,-0.0679711326956749,0.1595458984375,0.9593766331672668,0.22253428399562836,-75.2437515258789,-10.975000381469727,-97.3812484741211,,,,wave hand
1761153355.2894921,-2.2009520530700684,2.7167816162109375,9.730147361755371,-1.9734046459197998,2.7057065963745117,9.22067928314209,0.08062807470560074,-0.09584476053714752,-0.01659110002219677,-0.06773480772972107,0.15952658653259277,0.9592404961585999,0.2232060730457306,-74.98125457763672,-10.61875057220459,-97.67500305175781,,,,wave hand
1761153355.3193674,-2.2344629764556885,2.713191032409668,9.819908142089844,-1.9592432975769043,2.7156198024749756,9.220785140991211,0.1539319008588791,-0.11905763298273087,-0.014147638343274593,-0.06679187715053558,0.15990681946277618,0.9590856432914734,0.22388266026973724,-75.4000015258789,-11.068750381469727,-97.2874984741211,,,,wave hand
1761153355.3343656,-2.1087968349456787,2.7586703300476074,10.026958465576172,-1.9247581958770752,2.735447883605957,9.222187042236328,0.20524458587169647,-0.11905763298273087,-0.0055955252610147,-0.06475624442100525,0.1605195254087448,0.9590343236923218,0.22426168620586395,-74.8812484741211,-11.231249809265137,-97.23750305175781,,,,wave hand
1761153355.3493578,-1.9675722122192383,2.863990306854248,9.934803009033203,-1.894665002822876,2.753877878189087,9.222933769226074,0.19669246673583984,-0.08484918624162674,0.010286970995366573,-0.06300916522741318,0.1610952764749527,0.9590360522270203,0.22433915734291077,-75.2437515258789,-11.03125,-96.9437484741211,,,,wave hand
1761153355.3793151,-1.8694329261779785,2.7502925395965576,10.042516708374023,-1.86348557472229,2.7833328247070312,9.220443725585938,0.20157939195632935,-0.05919284373521805,0.02983465977013111,-0.06112918630242348,0.1622096300125122,0.959020733833313,0.2241218239068985,-75.41875457763672,-10.93125057220459,-97.5,,,,wave hand
1761153355.394313,-1.7282081842422485,2.8663840293884277,9.995841026306152,-1.8343403339385986,2.828965663909912,9.212396621704102,0.2492268830537796,-0.021319197490811348,0.0481606163084507,-0.059206895530223846,0.16417501866817474,0.9589152336120605,0.22365762293338776,-75.39375305175781,-10.975000381469727,-96.85625457763672,,,,wave hand
1761153355.4253125,-1.7090590000152588,3.0411198139190674,9.757674217224121,-1.8130872249603271,2.885205030441284,9.199152946472168,0.24189649522304535,0.02021963894367218,0.0530475378036499,-0.05759688466787338,0.16678284108638763,0.9587186574935913,0.2229902148246765,-75.1875,-11.125,-97.2874984741211,,,,wave hand
1761153355.4393075,-1.5833929777145386,3.229020595550537,9.494373321533203,-1.8008074760437012,2.932229995727539,9.186687469482422,0.17958824336528778,0.056871555745601654,0.049382347613573074,-0.05656382441520691,0.16902600228786469,0.9585614800453186,0.222240149974823,-75.2750015258789,-11.256250381469727,-96.1812515258789,,,,wave hand
1761153355.4543078,-1.5642437934875488,3.1177163124084473,9.324424743652344,-1.796155571937561,2.981266498565674,9.17180347442627,0.1380494087934494,0.09108000993728638,0.037165042012929916,-0.055865637958049774,0.17148439586162567,0.9583001732826233,0.2216593623161316,-75.17500305175781,-11.256250381469727,-96.6875,,,,wave hand
1761153355.4843097,-1.6276752948760986,3.1979031562805176,9.214317321777344,-1.793858528137207,3.03383469581604,9.155000686645508,0.16126228868961334,0.07886270433664322,0.016395622864365578,-0.05520201101899147,0.17417533695697784,0.9579291343688965,0.2213314175605774,-75.375,-11.293749809265137,-96.6624984741211,,,,wave hand
1761153355.5003047,-1.7078622579574585,3.2685155868530273,9.119769096374512,-1.7998378276824951,3.083744764328003,9.137133598327637,0.1527101695537567,0.07275404781103134,-0.008038986474275589,-0.054957952350378036,0.17684616148471832,0.9574909210205078,0.22117021679878235,-75.28125,-11.55625057220459,-96.45000457763672,,,,wave hand
1761153355.5286312,-1.7389795780181885,3.269712448120117,9.150886535644531,-1.7933080196380615,3.12713885307312,9.123659133911133,0.10506268590688705,0.050762902945280075,-0.011704177595674992,-0.05415605753660202,0.17902188003063202,0.9571693539619446,0.22100938856601715,-75.23125457763672,-11.193750381469727,-96.0999984741211,,,,wave hand
1761153355.5449073,-1.7425700426101685,3.202690362930298,9.190381050109863,-1.773708701133728,3.1689579486846924,9.113055229187012,0.11239307373762131,0.021441370248794556,-0.0007086033001542091,-0.05271557718515396,0.18095098435878754,0.9569302201271057,0.22082200646400452,-75.0,-11.475000381469727,-96.3375015258789,,,,wave hand
1761153355.5739026,-1.7605222463607788,3.2996327877044678,9.214317321777344,-1.756711721420288,3.214639663696289,9.10033893585205,0.13071902096271515,-0.007880161516368389,-0.008038986474275589,-0.05135392025113106,0.18312041461467743,0.95662522315979,0.2206762284040451,-75.09375,-11.568750381469727,-96.01250457763672,,,,wave hand
1761153355.5896895,-1.7665064334869385,3.4205117225646973,9.196365356445312,-1.7614164352416992,3.24804425239563,9.08755874633789,0.08429326862096786,-0.02376265823841095,0.0017348576802760363,-0.0512046180665493,0.18493178486824036,0.95628422498703,0.2206781655550003,-75.26250457763672,-11.1875,-96.48750305175781,,,,wave hand
1761153355.6046882,-1.9268802404403687,3.3355374336242676,9.259797096252441,-1.7663406133651733,3.2490320205688477,9.086250305175781,0.0574151985347271,-0.04697553813457489,0.010286970995366573,-0.05139198154211044,0.18506015837192535,0.956188976764679,0.22093956172466278,-74.83125305175781,-11.068750381469727,-95.7750015258789,,,,wave hand
1761153355.6346898,-1.8861883878707886,3.2266268730163574,9.422564506530762,-1.7366573810577393,3.2699317932128906,9.084474563598633,0.1429363340139389,-0.08851437270641327,0.023726006969809532,-0.049643177539110184,0.18578064441680908,0.9561384320259094,0.220953568816185,-75.3125,-11.65000057220459,-96.1812515258789,,,,wave hand
1761153355.6496923,-1.7090590000152588,3.428889513015747,9.493176460266113,-1.6918003559112549,3.300888776779175,9.081743240356445,0.18569689989089966,-0.09950994700193405,0.02739119715988636,-0.04705999791622162,0.1868247240781784,0.9561229348182678,0.2207053303718567,-75.2562484741211,-11.4375,-95.67500305175781,,,,wave hand
1761153355.6646821,-1.7162399291992188,3.3905911445617676,9.508735656738281,-1.6627663373947144,3.318556785583496,9.080666542053223,0.1734796017408371,-0.07751879841089249,0.043273694813251495,-0.04541834816336632,0.18737708032131195,0.9561344385147095,0.2205311805009842,-75.6624984741211,-11.3125,-95.9437484741211,,,,wave hand
1761153355.6946802,-1.7066653966903687,3.292451858520508,9.549427032470703,-1.639650821685791,3.3493733406066895,9.073552131652832,0.23212265968322754,-0.06530149281024933,0.04693888500332832,-0.04392648860812187,0.18869563937187195,0.9559889435768127,0.22033968567848206,-75.61250305175781,-11.362500190734863,-95.875,,,,wave hand
1761153355.7086773,-1.6779416799545288,3.3965752124786377,9.602087020874023,-1.6247661113739014,3.394444465637207,9.059469223022461,0.321308970451355,-0.045753806829452515,0.05671272799372673,-0.04271535575389862,0.19086316227912903,0.9556928277015686,0.21999512612819672,-75.3062515258789,-11.512499809265137,-95.6624984741211,,,,wave hand
1761153355.7393572,-1.7198303937911987,3.5306191444396973,9.469240188598633,-1.6350507736206055,3.4581453800201416,9.033490180969238,0.3713999390602112,-0.02376265823841095,0.09458637237548828,-0.04263511300086975,0.19431859254837036,0.9551615715026855,0.21929192543029785,-75.35625457763672,-11.80625057220459,-96.2437515258789,,,,wave hand
1761153355.7543607,-1.9232897758483887,3.230217218399048,9.551820755004883,-1.6365418434143066,3.5579066276550293,8.99439525604248,0.5033468008041382,0.005558873526751995,0.15200771391391754,-0.04183385521173477,0.1995495706796646,0.9544340372085571,0.21791206300258636,-75.5250015258789,-11.83750057220459,-95.2874984741211,,,,wave hand
1761153355.7693546,-2.0776796340942383,3.737668991088867,9.819908142089844,-1.6182653903961182,3.713318109512329,8.934684753417969,0.6914933323860168,-0.03353650122880936,0.2595199942588806,-0.039678193628787994,0.20745860040187836,0.953450083732605,0.2152198851108551,-76.25,-11.574999809265137,-94.6312484741211,,,,wave hand
1761153355.7993515,-1.6779416799545288,4.140997409820557,9.876158714294434,-1.5817017555236816,3.842512607574463,8.886474609375,0.7049323320388794,-0.002993239788338542,0.36458882689476013,-0.03721238672733307,0.21374255418777466,0.9530509114265442,0.2112424373626709,-76.10625457763672,-11.987500190734863,-94.48125457763672,,,,wave hand
1761153355.8145173,-1.7760809659957886,3.945915699005127,9.65115737915039,-1.561845302581787,3.9889700412750244,8.825240135192871,0.712262749671936,0.05198463052511215,0.47454455494880676,-0.03564465790987015,0.22118113934993744,0.9524720311164856,0.2064109444618225,-76.0999984741211,-12.112500190734863,-93.7562484741211,,,,wave hand
1761153355.8442707,-1.601345181465149,4.337275981903076,9.284930229187012,-1.519667625427246,4.1570515632629395,8.75475025177002,0.692715048789978,0.07641924172639847,0.5478484034538269,-0.033025577664375305,0.22955116629600525,0.9518535137176514,0.2004760503768921,-76.42500305175781,-12.225000381469727,-93.5687484741211,,,,wave hand
1761153355.8593278,-1.5917706489562988,4.459351539611816,9.016841888427734,-1.4920988082885742,4.32249116897583,8.679044723510742,0.6866064071655273,0.11551462113857269,0.585722029209137,-0.031315676867961884,0.23803848028182983,0.9510942697525024,0.1943623572587967,-76.875,-12.33750057220459,-93.40625,,,,wave hand
1761153355.8896189,-1.6037389039993286,4.689140796661377,8.741573333740234,-1.467897653579712,4.481054306030273,8.602415084838867,0.6707239151000977,0.13384057581424713,0.575948178768158,-0.02986426278948784,0.24628609418869019,0.9502090811729431,0.18855752050876617,-77.2750015258789,-12.443750381469727,-92.7750015258789,,,,wave hand
1761153355.9046118,-1.5307328701019287,5.119996070861816,8.590774536132812,-1.4396748542785645,4.6158881187438965,8.535632133483887,0.6181895136833191,0.11795807629823685,0.5429614782333374,-0.0284417737275362,0.2532657980918884,0.9494851231575012,0.1830996572971344,-77.8125,-12.756250381469727,-92.01875305175781,,,,wave hand
1761153355.9326122,-1.3787367343902588,5.268402099609375,8.398086547851562,-1.4192214012145996,4.725883483886719,8.478675842285156,0.4520341455936432,0.14239269495010376,0.47943148016929626,-0.027574976906180382,0.2590272128582001,0.948880136013031,0.17824417352676392,-78.15625,-13.03125,-91.3812484741211,,,,wave hand
1761153355.9496126,-1.3332575559616089,5.280370235443115,8.243696212768555,-1.4011677503585815,4.819839954376221,8.428640365600586,0.3750651180744171,0.14117096364498138,0.4134580194950104,-0.026896685361862183,0.26397401094436646,0.9483402371406555,0.17391131818294525,-77.59375,-12.975000381469727,-91.29375457763672,,,,wave hand
1761153355.963612,-1.2351182699203491,5.341407775878906,8.140769958496094,-1.3894031047821045,4.899817943572998,8.384357452392578,0.3042047619819641,0.15216653048992157,0.3462628424167633,-0.026534955948591232,0.2682510316371918,0.9478174448013306,0.17023365199565887,-77.84375,-12.893750190734863,-90.88750457763672,,,,wave hand
1761153355.9795625,-1.187245488166809,5.4910101890563965,7.9564595222473145,-1.3868625164031982,4.965573310852051,8.3460054397583,0.2394530475139618,0.15949691832065582,0.2754024863243103,-0.026624616235494614,0.27186140418052673,0.947320282459259,0.1672327220439911,-78.2125015258789,-13.050000190734863,-90.8499984741211,,,,wave hand
1761153356.0095558,-1.245889663696289,5.447925090789795,7.945688247680664,-1.3911199569702148,5.02086877822876,8.312145233154297,0.17592304944992065,0.15949691832065582,0.19599001109600067,-0.026963386684656143,0.27498406171798706,0.9467995762825012,0.16500678658485413,-78.21875,-12.881250381469727,-90.11250305175781,,,,wave hand
1761153356.024676,-1.284187912940979,5.359360218048096,7.894225120544434,-1.4040708541870117,5.071089267730713,8.279417037963867,0.16492748260498047,0.15705345571041107,0.11779925227165222,-0.027581343427300453,0.2779400050640106,0.9461653232574463,0.16358467936515808,-78.3687515258789,-13.21875,-89.5875015258789,,,,wave hand
1761153356.0546033,-1.3751462697982788,5.474255084991455,8.000741958618164,-1.4192533493041992,5.106781482696533,8.254854202270508,0.12216691672801971,0.11795807629823685,0.05426926910877228,-0.028205707669258118,0.28012093901634216,0.9456008076667786,0.16302146017551422,-78.20000457763672,-13.0,-90.86250305175781,,,,wave hand
1761153356.0696018,-1.3715558052062988,5.534095764160156,8.223350524902344,-1.4303251504898071,5.12229061126709,8.243326187133789,0.020763283595442772,0.08741481602191925,-0.02880840376019478,-0.02859954722225666,0.28112801909446716,0.9452671408653259,0.16315403580665588,-78.28125,-13.268750190734863,-90.4625015258789,,,,wave hand
1761153356.0835977,-1.3200925588607788,5.394067764282227,8.332261085510254,-1.4304406642913818,5.112198829650879,8.249567985534668,-0.05254054442048073,0.08252789080142975,-0.0984470397233963,-0.028562460094690323,0.28056538105010986,0.9453551769256592,0.16361819207668304,-77.9124984741211,-13.05625057220459,-90.03125,,,,wave hand
1761153356.128728,-1.3057307004928589,5.163081645965576,8.532130241394043,-1.426987886428833,5.096450328826904,8.259903907775879,-0.0488753542304039,0.06420193612575531,-0.1082208901643753,-0.02834688127040863,0.27964693307876587,0.9455263614654541,0.16423767805099487,-77.65625,-13.037500381469727,-90.08125305175781,,,,wave hand
1761153356.1317904,-1.4337904453277588,5.248055934906006,8.524949073791504,-1.4372813701629639,5.070791721343994,8.27389907836914,-0.03421458974480629,0.03976732864975929,-0.10455569624900818,-0.028861643746495247,0.2783157229423523,0.9457469582557678,0.16513662040233612,-77.6812515258789,-13.068750381469727,-89.7750015258789,,,,wave hand
1761153356.1587782,-1.5510787963867188,5.141539096832275,8.670961380004883,-1.4519331455230713,5.035882472991943,8.292640686035156,-0.05498400703072548,0.012889256700873375,-0.09600358456373215,-0.02966161072254181,0.27650967240333557,0.9460753798484802,0.16614459455013275,-77.80000305175781,-13.125,-90.29375457763672,,,,wave hand
1761153356.1737082,-1.5127805471420288,5.114012241363525,8.627875328063965,-1.4598993062973022,4.999426364898682,8.313274383544922,-0.07208823412656784,-0.015210544690489769,-0.0679037794470787,-0.030203722417354584,0.2745422422885895,0.9464982151985168,0.16689948737621307,-77.55000305175781,-13.018750190734863,-90.3812484741211,,,,wave hand
1761153356.1887527,-1.5869834423065186,4.915339946746826,8.534523963928223,-1.4822897911071777,4.981667518615723,8.319971084594727,-0.06475785374641418,-0.011545353569090366,-0.038582246750593185,-0.03135457634925842,0.2737906575202942,0.9465653896331787,0.16753962635993958,-77.6624984741211,-12.96250057220459,-89.51875305175781,,,,wave hand
1761153356.2188241,-1.7174367904663086,5.1882147789001465,8.450746536254883,-1.5041612386703491,4.963054180145264,8.327166557312012,-0.0940793827176094,-0.03475823253393173,-0.020256292074918747,-0.03246758133172989,0.27298998832702637,0.9466336369514465,0.16824713349342346,-77.28125,-13.08750057220459,-90.23125457763672,,,,wave hand
1761153356.233841,-1.7449636459350586,4.900978088378906,8.412447929382324,-1.5375864505767822,4.921101093292236,8.345938682556152,-0.1808222532272339,-0.022540926933288574,-0.08012108504772186,-0.03412535414099693,0.2710282802581787,0.9468374848365784,0.16993486881256104,-77.42500305175781,-12.918749809265137,-90.1937484741211,,,,wave hand
1761153356.2637515,-1.6468243598937988,5.097256660461426,8.321490287780762,-1.5493297576904297,4.896098613739014,8.358463287353516,-0.1796005219221115,-0.04453207552433014,-0.1949637532234192,-0.03425345569849014,0.2698318362236023,0.9467158317565918,0.1724724918603897,-77.51875305175781,-12.699999809265137,-90.85625457763672,,,,wave hand
1761153356.2787497,-0.9311259984970093,5.613086223602295,8.242499351501465,-1.5823562145233154,4.838536739349365,8.385750770568848,-0.25779128074645996,-0.02987131103873253,-0.3916623592376709,-0.035137493163347244,0.26712745428085327,0.9465377926826477,0.17741042375564575,-77.21875,-13.02500057220459,-90.7249984741211,,,,wave hand
1761153356.2948034,0.09335196763277054,6.655516147613525,7.980396270751953,-1.6689378023147583,4.732353687286377,8.429447174072266,-0.41539451479911804,0.005558873526751995,-0.7374120950698853,-0.03823563829064369,0.2624930441379547,0.946014404296875,0.1862587332725525,-76.9124984741211,-12.731249809265137,-90.67500305175781,,,,wave hand
1761153356.323977,1.043627142906189,8.439974784851074,7.918161392211914,-1.8386085033416748,4.548704147338867,8.494994163513184,-0.6487450003623962,0.09596692770719528,-1.2627562284469604,-0.04493303596973419,0.25496038794517517,0.9447509050369263,0.20105239748954773,-75.9437484741211,-12.387499809265137,-90.5374984741211,,,,wave hand
1761153356.3389723,1.6719576120376587,9.433335304260254,7.494487285614014,-2.123159408569336,4.279285907745361,8.568314552307129,-0.9749470949172974,0.2963307201862335,-2.01412034034729,-0.05678718537092209,0.24507540464401245,0.9417164325714111,0.22334596514701843,-74.0687484741211,-12.043749809265137,-91.48750305175781,,,,wave hand
1761153356.3689167,0.9981479048728943,8.777478218078613,7.557918548583984,-2.51094913482666,3.931373119354248,8.629921913146973,-1.1093374490737915,0.5357899069786072,-2.932861804962158,-0.0732775554060936,0.2340451031923294,0.9356282353401184,0.25387629866600037,-71.90625,-11.475000381469727,-91.7750015258789,,,,wave hand
1761153356.384009,0.013165020383894444,7.197675704956055,8.293963432312012,-2.9705090522766113,3.468977928161621,8.682071685791016,-1.2156280279159546,0.7166060209274292,-3.8406076431274414,-0.09405641257762909,0.22054952383041382,0.9260134696960449,0.29156529903411865,-68.9000015258789,-11.006250381469727,-91.15625,,,,wave hand
1761153356.3990896,-0.5541276931762695,5.245662212371826,10.00900650024414,-3.49662446975708,2.849374294281006,8.711531639099121,-1.4355394840240479,1.015929937362671,-4.60785436630249,-0.1208023875951767,0.20345504581928253,0.9122886061668396,0.33427876234054565,-65.5250015258789,-10.30625057220459,-91.9312515258789,,,,wave hand
1761153356.4297514,-0.5505372285842896,1.6468243598937988,10.384807586669922,-4.084195613861084,2.0885229110717773,8.671420097351074,-1.7495242357254028,1.513174295425415,-5.182067394256592,-0.1547606885433197,0.18460971117019653,0.8937749266624451,0.37833160161972046,-61.88125228881836,-9.61875057220459,-91.7750015258789,,,,wave hand
1761153356.4447494,-1.104664921760559,-1.8466933965682983,10.216055870056152,-4.66257381439209,1.262457251548767,8.538309097290039,-1.7800674438476562,2.091052770614624,-5.331118583679199,-0.19246768951416016,0.16665016114711761,0.8711101412773132,0.4199417233467102,-58.01250076293945,-7.893750190734863,-89.375,,,,wave hand
1761153356.4747472,-1.9998862743377686,-4.023708820343018,9.198759078979492,-5.188867568969727,0.40900731086730957,8.315315246582031,-1.7702935934066772,2.384268045425415,-5.134419918060303,-0.23183801770210266,0.1497759073972702,0.8458213210105896,0.45651358366012573,-56.38750076293945,-6.724999904632568,-87.80000305175781,,,,wave hand
1761153356.4887464,-3.1308813095092773,-6.683043003082275,8.203004837036133,-5.649716377258301,-0.4286234378814697,8.00831413269043,-1.863145112991333,2.6481618881225586,-4.634732246398926,-0.2717721462249756,0.13404835760593414,0.8203310966491699,0.48500293493270874,-54.04375076293945,-5.787499904632568,-85.48750305175781,,,,wave hand
1761153356.504745,-5.219332218170166,-9.463255882263184,8.024678230285645,-6.033055305480957,-1.1830133199691772,7.644529342651367,-1.9682139158248901,2.7178006172180176,-3.7514212131500244,-0.30990880727767944,0.11969594657421112,0.7980226874351501,0.5027813911437988,-52.962501525878906,-5.256249904632568,-82.42500305175781,,,,wave hand
1761153356.5345755,-7.310176849365234,-11.260879516601562,7.527997970581055,-6.35094690322876,-1.7756686210632324,7.262822151184082,-2.052513360977173,2.5895187854766846,-2.533355951309204,-0.343801885843277,0.10782322287559509,0.7820455431938171,0.5085069537162781,-51.86249923706055,-4.325000286102295,-80.21875,,,,wave hand
1761153356.548685,-8.917506217956543,-11.88202953338623,7.124670028686523,-6.617166519165039,-2.1306862831115723,6.921661376953125,-2.1123781204223633,2.113044023513794,-1.0318491458892822,-0.3706080913543701,0.09931586682796478,0.7757970094680786,0.5009243488311768,-50.775001525878906,-3.90625,-77.1875,,,,wave hand
1761153356.578687,-8.766706466674805,-11.065797805786133,6.418545722961426,-6.848006248474121,-2.176161766052246,6.678715705871582,-1.8973535299301147,1.4960700273513794,0.7091168165206909,-0.3876074254512787,0.09673179686069489,0.7804573178291321,0.4809260964393616,-50.38750076293945,-3.8125,-76.07500457763672,,,,wave hand
1761153356.594695,-8.402873992919922,-10.242385864257812,4.544325828552246,-7.013401985168457,-1.8893101215362549,6.593845367431641,-1.3940006494522095,0.6616281270980835,2.4268698692321777,-0.39203253388404846,0.1011570543050766,0.7954731583595276,0.45088818669319153,-49.54375076293945,-4.381249904632568,-75.70625305175781,,,,wave hand
1761153356.6216764,-7.800873279571533,-8.326276779174805,3.821446418762207,-7.0669169425964355,-1.348689317703247,6.66901969909668,-0.6585188508033752,-0.3096475899219513,3.8269729614257812,-0.3846956789493561,0.10999999940395355,0.8182974457740784,0.4126723110675812,-49.10625076293945,-5.037499904632568,-76.0687484741211,,,,wave hand
1761153356.6387417,-5.686091899871826,-5.232497215270996,3.561736583709717,-6.999319553375244,-0.7064560651779175,6.83714485168457,-0.6475232839584351,-1.072007417678833,4.916756629943848,-0.3711024820804596,0.11749302595853806,0.8458068370819092,0.3648138642311096,-49.125,-5.912499904632568,-76.51250457763672,,,,wave hand
1761153356.6549132,-4.014134407043457,-2.677286386489868,4.292993545532227,-6.794440269470215,-0.029063940048217773,7.076075553894043,-1.0739072561264038,-1.4910609722137451,5.7316508293151855,-0.3524731695652008,0.12290816009044647,0.874671459197998,0.30920255184173584,-50.26250076293945,-7.349999904632568,-79.63750457763672,,,,wave hand
1761153356.6837618,-1.9364548921585083,0.5110421776771545,6.989428997039795,-6.477410316467285,0.7294994592666626,7.331241607666016,-1.0824593305587769,-1.7586199045181274,6.092061519622803,-0.3291221857070923,0.13422729074954987,0.8995541930198669,0.253897488117218,-51.73749923706055,-8.456250190734863,-81.76875305175781,,,,wave hand
1761153356.6987739,-0.6414955258369446,8.487848281860352,9.639188766479492,-6.143564224243164,1.6288317441940308,7.472592353820801,0.32375243306159973,-1.5704734325408936,5.561830520629883,-0.3049861192703247,0.16160880029201508,0.9142329096794128,0.21223634481430054,-54.118751525878906,-9.262499809265137,-83.03125,,,,wave hand
1761153356.7147124,-2.285926342010498,11.673783302307129,8.121621131896973,-5.892541408538818,2.608900785446167,7.396465301513672,2.592505931854248,-0.9559430480003357,4.28145694732666,-0.28513726592063904,0.2042320817708969,0.9169142246246338,0.1904059201478958,-55.48749923706055,-10.0,-82.92500305175781,,,,wave hand
1761153356.7444336,-2.762260675430298,19.423192977905273,7.638105392456055,-5.8380818367004395,3.298743486404419,7.160390853881836,3.7152762413024902,-0.13371840119361877,2.313248872756958,-0.27684348821640015,0.24166928231716156,0.9108662605285645,0.18781991302967072,-56.79999923706055,-11.356249809265137,-80.75,,,,wave hand
1761153356.7593513,-4.832759380340576,19.931840896606445,9.775626182556152,-5.951639175415039,3.458850383758545,6.989310264587402,2.820969581604004,0.34397822618484497,-0.05079955235123634,-0.2781204879283905,0.25771117210388184,0.9028489589691162,0.2027258276939392,-55.65625,-11.268750190734863,-79.6875,,,,wave hand
1761153356.7894392,-4.313339710235596,15.134986877441406,11.623516082763672,-6.152749061584473,3.04329776763916,7.008432388305664,0.7183713912963867,0.12162327021360397,-2.346431255340576,-0.28543809056282043,0.24762174487113953,0.895861029624939,0.23375530540943146,-54.42499923706055,-10.668749809265137,-80.04375457763672,,,,wave hand
1761153356.8043535,-4.3624091148376465,10.14783763885498,10.143050193786621,-6.38982629776001,2.311537265777588,7.0755228996276855,-0.6866186857223511,-0.20457877218723297,-4.325634479522705,-0.29707083106040955,0.22609920799732208,0.8853127956390381,0.277217298746109,-52.4375,-9.818750381469727,-79.7249984741211,,,,wave hand
1761153356.81835,-3.3020265102386475,4.066794395446777,8.089306831359863,-6.611567497253418,1.4699194431304932,7.096662521362305,-0.6120930910110474,-0.013988814316689968,-5.377544403076172,-0.31139495968818665,0.20329204201698303,0.8689046502113342,0.32666540145874023,-50.73749923706055,-8.881250381469727,-79.84375,,,,wave hand
1761153356.8493447,-2.436725616455078,0.9024023413658142,6.371870040893555,-6.818859577178955,0.58036208152771,7.028687477111816,-0.6524102091789246,0.31587842106819153,-5.66831636428833,-0.3303285241127014,0.18067136406898499,0.8475559949874878,0.37401852011680603,-48.72500228881836,-7.275000095367432,-79.38750457763672,,,,wave hand
1761153356.8775756,-1.5247488021850586,-4.036873817443848,6.047531604766846,-7.002626419067383,-0.26483821868896484,6.865070819854736,-0.4984721839427948,1.0085996389389038,-5.486278533935547,-0.352097749710083,0.1616339087486267,0.8227028250694275,0.41600680351257324,-48.01250076293945,-6.34375,-77.8687515258789,,,,wave hand
1761153356.8795884,-2.2691707611083984,-8.912718772888184,8.504603385925293,-7.15395975112915,-1.0412473678588867,6.63119649887085,-0.5400109887123108,1.3836709260940552,-4.786226749420166,-0.3757063150405884,0.14444135129451752,0.798221230506897,0.44813424348831177,-47.837501525878906,-5.53125,-76.1624984741211,,,,wave hand
1761153356.9217849,-3.463597297668457,-12.557036399841309,8.299946784973145,-7.300660133361816,-1.6981408596038818,6.328726768493652,-1.0433639287948608,1.6988773345947266,-3.750199556350708,-0.4009631872177124,0.12908707559108734,0.7779014706611633,0.46629852056503296,-47.64374923706055,-4.943749904632568,-74.5625,,,,wave hand
1761153356.9367847,-6.660303592681885,-14.17393970489502,5.255237102508545,-7.439116954803467,-2.124337673187256,6.0318193435668945,-1.3830050230026245,1.722090244293213,-2.2132625579833984,-0.42264866828918457,0.11805067211389542,0.7658058404922485,0.47007831931114197,-47.41250228881836,-4.275000095367432,-72.64375305175781,,,,wave hand
1761153356.953948,-8.796627044677734,-13.528854370117188,3.0818116664886475,-7.548580169677734,-2.220660448074341,5.858645915985107,-1.3512400388717651,1.1784201860427856,-0.4515271484851837,-0.43402498960494995,0.11408993601799011,0.7650331854820251,0.46187683939933777,-47.51874923706055,-4.400000095367432,-70.4937515258789,,,,wave hand
1761153356.968924,-9.100619316101074,-12.527115821838379,2.1674411296844482,-7.5928215980529785,-1.9515122175216675,5.897183418273926,-0.609649658203125,0.17293594777584076,1.2650041580200195,-0.4304650127887726,0.11886930465698242,0.7760314345359802,0.4453597068786621,-47.29999923706055,-4.637500286102295,-71.125,,,,wave hand
1761153357.013355,-8.211382865905762,-9.739721298217773,1.9328644275665283,-7.549977779388428,-1.422916293144226,6.099939346313477,0.09528884291648865,-0.9351736307144165,2.793389081954956,-0.41565433144569397,0.12777848541736603,0.7968502044677734,0.41944488883018494,-47.306251525878906,-5.081250190734863,-72.6937484741211,,,,wave hand
1761153357.0163624,-6.870944023132324,-5.851253032684326,2.1016159057617188,-7.4017181396484375,-0.7886929512023926,6.3897294998168945,-0.14661379158496857,-1.7158594131469727,4.077427864074707,-0.3953571021556854,0.13423296809196472,0.8246285915374756,0.3816568851470947,-46.60625076293945,-5.925000190734863,-74.38750457763672,,,,wave hand
1761153357.0293481,-5.135554790496826,-3.4875335693359375,3.2338078022003174,-7.114888668060303,-0.10752153396606445,6.752992630004883,-0.751370370388031,-2.2314295768737793,5.048703670501709,-0.3696324825286865,0.13850125670433044,0.8554123640060425,0.33534902334213257,-48.03750228881836,-6.550000190734863,-77.0374984741211,,,,wave hand
1761153357.059226,-3.091386318206787,-0.38896653056144714,5.738752365112305,-6.694019794464111,0.6447387933731079,7.142164707183838,-0.7684746384620667,-2.551522970199585,5.580156326293945,-0.33814144134521484,0.14709070324897766,0.8839976787567139,0.2873547375202179,-50.11249923706055,-8.30625057220459,-81.20000457763672,,,,wave hand
1761153357.074229,-1.566637396812439,7.030120849609375,8.480667114257812,-6.22715950012207,1.4993788003921509,7.4303741455078125,0.2296791970729828,-2.5002102851867676,5.239293575286865,-0.3048805594444275,0.16832584142684937,0.9038914442062378,0.24838368594646454,-52.56875228881836,-9.24375057220459,-82.66875457763672,,,,wave hand
1761153357.1183853,-2.3996241092681885,10.624171257019043,8.596758842468262,-5.824704647064209,2.4870424270629883,7.491564750671387,2.142909049987793,-1.9577620029449463,4.406073093414307,-0.27471181750297546,0.20664066076278687,0.911838710308075,0.22446204721927643,-55.13750076293945,-10.074999809265137,-83.7562484741211,,,,wave hand
1761153357.122366,-3.1380622386932373,16.488590240478516,7.352065563201904,-5.596502780914307,3.380648612976074,7.313445091247559,3.948626756668091,-0.9987035989761353,2.9363315105438232,-0.25370413064956665,0.2507581114768982,0.9082839488983154,0.21857476234436035,-55.90625,-10.52500057220459,-82.38750457763672,,,,wave hand
1761153357.1344461,-3.3379311561584473,19.868410110473633,8.297553062438965,-5.550167083740234,3.8061275482177734,7.137587070465088,3.80690598487854,-0.406164288520813,0.7140037417411804,-0.24346059560775757,0.2773725986480713,0.900670051574707,0.22931408882141113,-56.56875228881836,-11.3125,-80.95625305175781,,,,wave hand
1761153357.1646006,-3.8669257164001465,16.546037673950195,10.53441047668457,-5.629876613616943,3.55971622467041,7.202014923095703,1.488061547279358,-0.5051244497299194,-1.4044768810272217,-0.2430223673582077,0.2717810869216919,0.8955761790275574,0.25498735904693604,-55.39374923706055,-11.0625,-81.1937484741211,,,,wave hand
1761153357.1785934,-4.079959392547607,12.43974781036377,10.774971008300781,-5.792668342590332,2.8031327724456787,7.404292106628418,-1.0653551816940308,-0.8130005598068237,-3.6402437686920166,-0.25163960456848145,0.2435007244348526,0.8896464109420776,0.29311108589172363,-53.962501525878906,-9.981249809265137,-82.1937484741211,,,,wave hand
1761153357.2095907,-3.1428494453430176,6.886502742767334,9.462059020996094,-5.989816665649414,1.7732480764389038,7.563980579376221,-2.156360387802124,-0.577206552028656,-4.99269962310791,-0.26876842975616455,0.20552265644073486,0.879028856754303,0.3359052836894989,-52.79375076293945,-9.037500381469727,-83.8375015258789,,,,wave hand
1761153357.224585,-2.5372586250305176,3.3834102153778076,6.8553853034973145,-6.208407402038574,0.6333661079406738,7.569057464599609,-2.784329891204834,0.1460578739643097,-5.492387294769287,-0.294386625289917,0.16599328815937042,0.862497091293335,0.37667158246040344,-51.056251525878906,-8.006250381469727,-83.5,,,,wave hand
1761153357.2520902,-1.218362808227539,-2.604280471801758,7.128260135650635,-6.428379058837891,-0.4365410804748535,7.397397041320801,-2.560753345489502,1.094120740890503,-5.377544403076172,-0.32436254620552063,0.13324964046478271,0.8401532173156738,0.4137342870235443,-50.13750076293945,-6.675000190734863,-82.8062515258789,,,,wave hand
1761153357.2690792,-1.2482832670211792,-5.868008613586426,7.532785415649414,-6.619189739227295,-1.3732759952545166,7.1089067459106445,-2.0121963024139404,1.730642318725586,-4.959712505340576,-0.3547123670578003,0.1088557094335556,0.8138996958732605,0.4470983147621155,-49.23749923706055,-5.46875,-79.34375,,,,wave hand
1761153357.2840877,-1.6216912269592285,-9.435729026794434,7.596216678619385,-6.7730865478515625,-2.139427423477173,6.766407012939453,-1.4111047983169556,2.1093788146972656,-4.516224384307861,-0.38271966576576233,0.09302007406949997,0.7863020300865173,0.4760274291038513,-49.306251525878906,-4.28125,-77.0625,,,,wave hand
1761153357.3271554,-3.5162572860717773,-13.418745994567871,5.8835673332214355,-6.900433540344238,-2.6952743530273438,6.430832862854004,-0.7293792366981506,2.182682514190674,-3.63291335105896,-0.4063619077205658,0.08426595479249954,0.7626001238822937,0.4961957335472107,-50.38125228881836,-3.5375001430511475,-75.1500015258789,,,,wave hand
1761153357.3301733,-7.306586265563965,-13.573136329650879,2.3457672595977783,-7.017462253570557,-3.045363187789917,6.141425132751465,-0.7916874885559082,1.8247156143188477,-2.2389187812805176,-0.4254336655139923,0.07737955451011658,0.7495596408843994,0.5011777281761169,-49.50625228881836,-3.362499952316284,-72.6812515258789,,,,wave hand
1761153357.344146,-9.491979598999023,-15.19363021850586,1.177670955657959,-7.113600730895996,-3.088955879211426,6.007591247558594,-1.2327321767807007,0.9682825207710266,-0.22917219996452332,-0.4340877830982208,0.07328362762928009,0.7525642514228821,0.4897391200065613,-49.48125076293945,-3.106250047683716,-71.3499984741211,,,,wave hand
1761153357.3745263,-8.378936767578125,-14.88963794708252,2.507338047027588,-7.141528129577637,-2.752749443054199,6.136534690856934,-0.7770267128944397,-0.42815545201301575,1.8917518854141235,-0.42596352100372314,0.07606411725282669,0.7711096405982971,0.4670751988887787,-48.95000076293945,-3.674999952316284,-71.88750457763672,,,,wave hand
1761153357.3895335,-6.7033891677856445,-10.815662384033203,2.852022171020508,-7.074553489685059,-2.1459879875183105,6.4483747482299805,-0.10507495701313019,-1.7586199045181274,3.6266093254089355,-0.4055234491825104,0.082990363240242,0.8004463911056519,0.4335308074951172,-48.63750076293945,-4.425000190734863,-74.5,,,,wave hand
1761153357.4195287,-4.938079357147217,-7.000200271606445,3.9698522090911865,-6.888581275939941,-1.4047112464904785,6.841808319091797,-0.0891924574971199,-2.5331971645355225,4.943634510040283,-0.3782028257846832,0.0908108800649643,0.8347565531730652,0.3897402584552765,-48.76874923706055,-5.443749904632568,-77.6312484741211,,,,wave hand
1761153357.4345272,-3.017183303833008,-3.7304880619049072,5.331833362579346,-6.573991775512695,-0.5901414155960083,7.257442474365234,-0.174713596701622,-2.8569557666778564,5.780519962310791,-0.34647855162620544,0.1002616435289383,0.8691589832305908,0.33832359313964844,-49.45624923706055,-6.46875,-80.14375305175781,,,,wave hand
1761153357.4485295,-1.4301999807357788,0.5493404269218445,7.544753551483154,-6.155920505523682,0.2596259117126465,7.633698463439941,-0.1796005219221115,-2.850847005844116,6.19102144241333,-0.31284084916114807,0.11425073444843292,0.8985360264778137,0.2858504354953766,-51.212501525878906,-7.275000095367432,-83.375,,,,wave hand
1761153357.4794714,-0.15678343176841736,6.740490436553955,10.237598419189453,-5.7231621742248535,1.2640018463134766,7.866627216339111,0.9456132650375366,-2.468445301055908,5.705994606018066,-0.2793336808681488,0.14499416947364807,0.9169339537620544,0.24531926214694977,-54.84375,-9.231249809265137,-85.8375015258789,,,,wave hand
1761153357.4945483,-0.8425613045692444,12.646797180175781,10.11911392211914,-5.403482437133789,2.336085557937622,7.8473687171936035,3.181380033493042,-1.6095688343048096,4.524580955505371,-0.2530519366264343,0.1897285133600235,0.9225285053253174,0.22115391492843628,-56.98125076293945,-10.0625,-85.6875,,,,wave hand
1761153357.5384686,-2.052546501159668,20.622406005859375,9.563789367675781,-5.310530185699463,3.0917952060699463,7.646906852722168,3.932744264602661,-0.3707341253757477,2.6296770572662354,-0.24146920442581177,0.2279079407453537,0.9185798764228821,0.21438676118850708,-57.94375228881836,-10.881250381469727,-85.09375,,,,wave hand
1761153357.5405138,-4.081156253814697,20.995813369750977,10.527229309082031,-5.386402130126953,3.242434501647949,7.530564308166504,2.458115577697754,0.2621222734451294,0.32915863394737244,-0.24153251945972443,0.24050207436084747,0.9128589034080505,0.2247430682182312,-57.01874923706055,-11.15000057220459,-83.8375015258789,,,,wave hand
1761153357.5685506,-3.5090763568878174,14.680194854736328,11.713277816772461,-5.539649963378906,2.813838005065918,7.591488838195801,0.2247922718524933,-0.016432275995612144,-2.053215742111206,-0.24801892042160034,0.22706954181194305,0.90730881690979,0.25242185592651367,-55.98749923706055,-10.84375,-83.55000305175781,,,,wave hand
1761153357.58447,-3.7233071327209473,11.28242301940918,11.82817268371582,-5.73643684387207,2.001175880432129,7.7022528648376465,-1.4147700071334839,-0.24489587545394897,-4.04952335357666,-0.2610323131084442,0.1982186734676361,0.8986208438873291,0.2916370630264282,-54.51250076293945,-9.53125,-84.07500457763672,,,,wave hand
1761153357.598461,-2.966917037963867,5.501781940460205,10.289061546325684,-5.961935520172119,1.052293062210083,7.719074249267578,-1.969435691833496,0.07519751042127609,-5.1222028732299805,-0.28056538105010986,0.1668958067893982,0.8839796781539917,0.3346771001815796,-52.125,-8.643750190734863,-84.4124984741211,,,,wave hand
1761153357.6292372,-2.065711498260498,0.37101420760154724,7.016955852508545,-6.220129013061523,0.1009988784790039,7.58524227142334,-1.7935065031051636,0.9328523278236389,-5.298131942749023,-0.30673572421073914,0.13894438743591309,0.8639002442359924,0.37454503774642944,-50.743751525878906,-7.53125,-83.26875305175781,,,,wave hand
1761153357.644236,-1.5929675102233887,-2.4630556106567383,7.852336406707764,-6.493785381317139,-0.8246550559997559,7.3066277503967285,-1.8081672191619873,1.7147598266601562,-4.929169178009033,-0.3383823037147522,0.11441288888454437,0.8400790095329285,0.4082578122615814,-49.70624923706055,-6.525000095367432,-81.42500305175781,,,,wave hand
1761153357.6592348,-1.4613173007965088,-7.758984565734863,9.864191055297852,-6.765439510345459,-1.5810941457748413,6.92568302154541,-1.463639259338379,2.436802625656128,-4.455138206481934,-0.3699609637260437,0.10068729519844055,0.8125846982002258,0.4389727711677551,-48.51250076293945,-5.8125,-78.8375015258789,,,,wave hand
1761153357.6892319,-2.333799123764038,-10.488930702209473,9.908473014831543,-7.02056884765625,-2.1316909790039062,6.511805534362793,-0.4642637073993683,2.7788870334625244,-3.9212417602539062,-0.39814475178718567,0.09790024161338806,0.7842198014259338,0.4657205045223236,-48.54375076293945,-4.512500286102295,-74.375,,,,wave hand
1761153357.7044656,-3.835808277130127,-11.038270950317383,6.9654927253723145,-7.274367809295654,-2.491924285888672,6.091797828674316,0.17225787043571472,2.9218294620513916,-3.0489261150360107,-0.42298927903175354,0.10291199386119843,0.7585737109184265,0.4848248362541199,-48.10000228881836,-3.9375,-71.6500015258789,,,,wave hand
1761153357.734463,-6.651926040649414,-12.02564811706543,4.480894088745117,-7.526208877563477,-2.6436357498168945,5.709945201873779,0.43370819091796875,2.7813305854797363,-1.8516303300857544,-0.44284307956695557,0.11341628432273865,0.7397701144218445,0.49372759461402893,-48.09375,-3.6187500953674316,-69.3687515258789,,,,wave hand
1761153357.749471,-8.984528541564941,-13.356512069702148,2.664121389389038,-7.765802383422852,-2.6017212867736816,5.399949550628662,0.3298611044883728,2.260873317718506,-0.4063231348991394,-0.45746123790740967,0.12450878322124481,0.7321041822433472,0.4891321063041687,-47.31875228881836,-3.4375,-66.6500015258789,,,,wave hand
1761153357.764465,-10.656485557556152,-11.952641487121582,0.7396348118782043,-7.980739593505859,-2.33429217338562,5.205285549163818,-0.28955626487731934,1.4044402837753296,1.2882170677185059,-0.4655475616455078,0.13401642441749573,0.7389339804649353,0.4682752788066864,-46.41250228881836,-3.8125,-65.85625457763672,,,,wave hand
1761153357.7944684,-9.085061073303223,-8.782265663146973,0.4607757329940796,-8.11948013305664,-1.829679012298584,5.192535400390625,-0.8686565160751343,0.3061045706272125,3.0548393726348877,-0.4634924829006195,0.1432463377714157,0.7582565546035767,0.4355480968952179,-45.54999923706055,-4.668750286102295,-65.26875305175781,,,,wave hand
1761153357.82246,-7.500471115112305,-5.869205474853516,0.31596049666404724,-8.124589920043945,-1.1335644721984863,5.379794120788574,-0.8246741890907288,-0.8557611107826233,4.26923942565918,-0.44983425736427307,0.15313278138637543,0.7857722043991089,0.39593127369880676,-44.900001525878906,-5.28125,-66.8187484741211,,,,wave hand
1761153357.8254592,-6.426923751831055,-2.113584280014038,0.49189305305480957,-7.966415882110596,-0.3645913600921631,5.713089466094971,-0.8710999488830566,-1.8368107080459595,5.073138236999512,-0.4279152750968933,0.16031688451766968,0.8178115487098694,0.34981608390808105,-44.931251525878906,-6.575000286102295,-69.28125,,,,wave hand
1761153357.8543437,-5.020659923553467,-0.1555866003036499,2.1722283363342285,-7.631412506103516,0.4148240089416504,6.15024995803833,-1.2437278032302856,-2.48677134513855,5.514183044433594,-0.398990273475647,0.16534323990345,0.8507267236709595,0.29955366253852844,-46.587501525878906,-7.756249904632568,-72.32500457763672,,,,wave hand
1761153357.8823018,-3.0423166751861572,2.617445468902588,4.953638076782227,-7.146020889282227,1.2195532321929932,6.609325408935547,-1.1374372243881226,-2.8630642890930176,5.671785831451416,-0.3639407753944397,0.17515815794467926,0.8792967796325684,0.2523964047431946,-48.0625,-8.11875057220459,-74.8062515258789,,,,wave hand
1761153357.8993025,-2.1303396224975586,10.0903902053833,7.7218828201293945,-6.623797416687012,2.0985922813415527,6.92512321472168,0.3799520432949066,-2.707904577255249,5.150106906890869,-0.3276996314525604,0.19912436604499817,0.8972641229629517,0.21881403028964996,-51.8125,-9.981249809265137,-78.3375015258789,,,,wave hand
1761153357.914296,-2.534864902496338,11.7420015335083,8.700881958007812,-6.180304050445557,3.022742748260498,6.993066787719727,2.620605707168579,-2.2314295768737793,3.7304563522338867,-0.29397672414779663,0.23906542360782623,0.9015117287635803,0.20905035734176636,-53.212501525878906,-10.793749809265137,-78.9937515258789,,,,wave hand
1761153357.9455187,-2.0848605632781982,18.295787811279297,9.045565605163574,-5.942735195159912,3.6208248138427734,6.914451599121094,4.169760227203369,-1.6266731023788452,1.6144191026687622,-0.2713487148284912,0.2719399929046631,0.8969631195068359,0.2188052088022232,-54.25625228881836,-11.300000190734863,-78.85625457763672,,,,wave hand
1761153357.988508,-3.195509433746338,19.195796966552734,10.800104141235352,-5.930118560791016,3.5627689361572266,6.955320358276367,2.4849936962127686,-1.1538633108139038,-0.9793147444725037,-0.2634817361831665,0.27581849694252014,0.8915729522705078,0.24412955343723297,-53.70624923706055,-11.199999809265137,-78.9124984741211,,,,wave hand
1761153357.991504,-3.717323064804077,13.773005485534668,11.433221817016602,-6.071396827697754,2.9938220977783203,7.100090980529785,-0.05864919722080231,-0.9644951224327087,-3.20042085647583,-0.26763346791267395,0.25786057114601135,0.8844935297966003,0.2820488214492798,-53.00625228881836,-11.074999809265137,-79.42500305175781,,,,wave hand
1761153357.994503,-3.072237014770508,6.319210052490234,10.967658996582031,-6.284667491912842,2.165717124938965,7.214480400085449,-0.8674347996711731,-0.6114150285720825,-4.787448883056641,-0.2800779342651367,0.23204705119132996,0.871788740158081,0.32816895842552185,-51.29999923706055,-9.643750190734863,-80.35625457763672,,,,wave hand
1761153358.0325782,-2.8065431118011475,2.927421808242798,8.897160530090332,-6.536142826080322,1.2082207202911377,7.214925765991211,-1.2803796529769897,0.06908886134624481,-5.592568874359131,-0.30115944147109985,0.2038867473602295,0.8534479141235352,0.37330934405326843,-49.51250076293945,-8.24375057220459,-80.54375457763672,,,,wave hand
1761153358.0475943,-2.2560057640075684,-2.031003713607788,8.411251068115234,-6.801839351654053,0.23072576522827148,7.065256595611572,-1.4123265743255615,0.9291871190071106,-5.409309387207031,-0.32922250032424927,0.17750418186187744,0.8307782411575317,0.41220417618751526,-48.743751525878906,-7.3125,-78.6500015258789,,,,wave hand
1761153358.0766635,-2.548029899597168,-4.424643516540527,7.753000259399414,-7.064743518829346,-0.7380959987640381,6.7661452293396,-1.7617415189743042,1.7172032594680786,-4.9462738037109375,-0.3629562258720398,0.15298104286193848,0.805320143699646,0.44307899475097656,-48.32500076293945,-6.193749904632568,-77.6500015258789,,,,wave hand
1761153358.0796125,-2.8532190322875977,-8.364575386047363,6.823071002960205,-7.30265474319458,-1.5596961975097656,6.361972808837891,-1.5845905542373657,2.3769378662109375,-4.490568161010742,-0.3959754407405853,0.13763682544231415,0.7763859629631042,0.47062137722969055,-47.26874923706055,-4.6875,-74.2125015258789,,,,wave hand
1761153358.1085775,-4.790870666503906,-11.105293273925781,4.945260524749756,-7.474617004394531,-2.19710111618042,5.961457252502441,-0.619423508644104,2.5528669357299805,-3.928572177886963,-0.4233541190624237,0.13009752333164215,0.7479641437530518,0.494363933801651,-47.493751525878906,-4.425000190734863,-70.4625015258789,,,,wave hand
1761153358.1235762,-6.584903717041016,-9.532671928405762,2.293107271194458,-7.592533111572266,-2.7147321701049805,5.587466716766357,-0.4520464241504669,2.2791993618011475,-3.124673366546631,-0.44729772210121155,0.12304681539535522,0.7251768112182617,0.5088249444961548,-48.337501525878906,-3.5,-68.4124984741211,,,,wave hand
1761153358.1535733,-8.591971397399902,-10.72350788116455,0.3422905504703522,-7.66838264465332,-3.0414175987243652,5.308653354644775,-0.8967562913894653,1.7367509603500366,-1.9493687152862549,-0.4646458327770233,0.11632143706083298,0.7129643559455872,0.5121087431907654,-48.20624923706055,-2.7750000953674316,-66.30000305175781,,,,wave hand
1761153358.183713,-10.441058158874512,-12.84906005859375,-0.3698174059391022,-7.711118698120117,-3.092897891998291,5.216200828552246,-0.990829586982727,0.6909496784210205,-0.3464583456516266,-0.4711516499519348,0.11024849116802216,0.7166439890861511,0.5022777318954468,-48.03125,-2.9437501430511475,-65.90625,,,,wave hand
1761153358.1867125,-9.125753402709961,-10.719917297363281,0.6319209933280945,-7.704556941986084,-2.851240634918213,5.361562252044678,-1.1826412677764893,-0.7323663234710693,1.5765454769134521,-0.4642595052719116,0.10579631477594376,0.7362726330757141,0.48080456256866455,-47.22500228881836,-3.700000047683716,-65.73750305175781,,,,wave hand
1761153358.2143161,-7.417890548706055,-8.047417640686035,1.3176988363265991,-7.605744361877441,-2.371608257293701,5.724005222320557,-0.8833172917366028,-2.1007044315338135,3.1159257888793945,-0.44438979029655457,0.1037994995713234,0.7669473886489868,0.4511485993862152,-46.837501525878906,-4.368750095367432,-69.20000457763672,,,,wave hand
1761153358.2291808,-5.675320625305176,-5.458696365356445,2.7107973098754883,-7.3827409744262695,-1.7632766962051392,6.214668273925781,-0.7171619534492493,-3.0585412979125977,4.20937442779541,-0.4155876934528351,0.10264114290475845,0.8030388355255127,0.4145844876766205,-46.88125228881836,-5.243750095367432,-72.55000305175781,,,,wave hand
1761153358.2588515,-3.689796209335327,-2.780212879180908,6.034366607666016,-7.051686763763428,-1.0235718488693237,6.742560386657715,-0.5656673312187195,-3.4739296436309814,4.863000392913818,-0.38041022419929504,0.10784503817558289,0.838532030582428,0.37486201524734497,-47.368751525878906,-5.825000286102295,-76.30000305175781,,,,wave hand
1761153358.2859213,-2.4187734127044678,3.0147898197174072,9.940787315368652,-6.675041198730469,-0.12904977798461914,7.187717437744141,0.49357298016548157,-3.2503528594970703,4.964404106140137,-0.34279295802116394,0.1270691156387329,0.8663285970687866,0.34032514691352844,-48.23749923706055,-6.987500190734863,-79.66875457763672,,,,wave hand
1761153358.2899222,-3.5904600620269775,8.624285697937012,10.628958702087402,-6.336396217346191,0.9032779932022095,7.434398651123047,2.2137694358825684,-2.462336778640747,4.509920597076416,-0.3076516389846802,0.16257643699645996,0.8824098110198975,0.3166581988334656,-50.23749923706055,-8.24375057220459,-82.45625305175781,,,,wave hand
1761153358.3186026,-4.006953716278076,12.555839538574219,11.288406372070312,-6.1143035888671875,1.8557355403900146,7.443631172180176,3.815458297729492,-1.405539870262146,3.223438262939453,-0.2802661657333374,0.2050875872373581,0.8849932551383972,0.310124009847641,-50.70624923706055,-9.425000190734863,-82.5062484741211,,,,wave hand
1761153358.3335638,-3.9136016368865967,16.835668563842773,11.898784637451172,-6.067547798156738,2.351743221282959,7.340999603271484,3.9315226078033447,-0.5026810169219971,0.986449658870697,-0.2669817805290222,0.23358455300331116,0.8785965442657471,0.31972968578338623,-50.25625228881836,-9.475000381469727,-81.45625305175781,,,,wave hand
1761153358.3645804,-5.045793533325195,13.638961791992188,12.419402122497559,-6.136895656585693,2.13077974319458,7.350809574127197,1.83136785030365,-0.17525723576545715,-1.2370998859405518,-0.2689085602760315,0.23028069734573364,0.8705877065658569,0.34166672825813293,-50.13125228881836,-9.03125,-81.42500305175781,,,,wave hand
1761153358.379502,-5.087682247161865,11.132820129394531,11.343460083007812,-6.275241851806641,1.3097529411315918,7.4257659912109375,-1.208297610282898,-0.12516628205776215,-3.3836803436279297,-0.28501632809638977,0.20071448385715485,0.8604156970977783,0.371704638004303,-49.63750076293945,-8.65625,-82.10625457763672,,,,wave hand
1761153358.3935063,-4.255892276763916,4.422250270843506,10.308211326599121,-6.44264554977417,0.22322535514831543,7.394497871398926,-2.764782190322876,0.28533515334129333,-4.530885219573975,-0.31116563081741333,0.16214261949062347,0.8449274301528931,0.4037120044231415,-48.95000076293945,-6.950000286102295,-81.375,,,,wave hand
1761153358.4234424,-3.5222413539886475,-1.8658424615859985,8.563247680664062,-6.653290271759033,-0.8095943927764893,7.1634063720703125,-2.8918421268463135,1.189415693283081,-4.723918914794922,-0.3435123860836029,0.1299688220024109,0.8238005638122559,0.4318101406097412,-48.17499923706055,-6.337500095367432,-80.07500457763672,,,,wave hand
1761153358.4387293,-3.807084560394287,-4.318126678466797,7.197675704956055,-6.8834028244018555,-1.6633437871932983,6.7888264656066895,-2.2443251609802246,2.082500696182251,-4.169252872467041,-0.3768480718135834,0.10940717905759811,0.7983701825141907,0.45675012469291687,-47.875,-5.168750286102295,-77.4625015258789,,,,wave hand
1761153358.468818,-3.731684923171997,-6.738096714019775,6.034366607666016,-7.080572128295898,-2.3176512718200684,6.382014274597168,-1.235175609588623,2.5528669357299805,-3.825946807861328,-0.40591517090797424,0.0997588187456131,0.770979106426239,0.48049184679985046,-47.63125228881836,-4.193749904632568,-74.9437484741211,,,,wave hand
1761153358.4837906,-5.461090087890625,-9.632007598876953,2.822101593017578,-7.2227606773376465,-2.709517002105713,6.060227870941162,-0.2565695345401764,2.4099245071411133,-3.1039040088653564,-0.4257768988609314,0.0991661474108696,0.7484700083732605,0.4986710548400879,-48.087501525878906,-3.6812500953674316,-72.1187515258789,,,,wave hand
1761153358.498792,-8.658992767333984,-13.138690948486328,-0.2680876851081848,-7.307577133178711,-2.81961727142334,5.906369209289551,0.321308970451355,1.6060258150100708,-1.702579140663147,-0.43423324823379517,0.10199659317731857,0.7392095327377319,0.5045864582061768,-48.15625,-3.450000047683716,-70.66875457763672,,,,wave hand
1761153358.5287287,-9.426155090332031,-12.151313781738281,-0.7767361998558044,-7.326348781585693,-2.6413674354553223,5.965223789215088,0.07085423171520233,0.27433958649635315,0.3499280512332916,-0.43006888031959534,0.1048944965004921,0.7474477887153625,0.4953378736972809,-47.79999923706055,-3.825000047683716,-70.3375015258789,,,,wave hand
1761153358.5437224,-8.140769958496094,-9.810334205627441,0.4308552145957947,-7.220877647399902,-2.1953983306884766,6.266998291015625,0.10628441721200943,-1.3102449178695679,2.200849771499634,-0.4107855558395386,0.10879503190517426,0.7697945833206177,0.47627222537994385,-47.0,-4.331250190734863,-72.65625,,,,wave hand
1761153358.573783,-6.759639739990234,-7.257516860961914,1.1824581623077393,-6.971807479858398,-1.6072133779525757,6.711697578430176,0.360404372215271,-2.6138312816619873,3.4506800174713135,-0.3813346028327942,0.11180101335048676,0.8000842332839966,0.449388325214386,-47.06875228881836,-4.568749904632568,-75.64375305175781,,,,wave hand
1761153358.588786,-4.9344892501831055,-4.427037239074707,3.657482147216797,-6.588485240936279,-0.9642723798751831,7.204036712646484,0.21624016761779785,-3.2931134700775146,4.1959357261657715,-0.3460107445716858,0.11444801092147827,0.8324474692344666,0.4173840582370758,-47.78125,-5.368750095367432,-79.04375457763672,,,,wave hand
1761153358.6037872,-3.5006985664367676,0.4799248278141022,7.337703704833984,-6.149276256561279,-0.19866037368774414,7.6408796310424805,0.4324864447116852,-3.338317394256592,4.505033493041992,-0.30770590901374817,0.12599079310894012,0.8607816696166992,0.3853548765182495,-50.09375,-6.787499904632568,-84.2562484741211,,,,wave hand
1761153358.6337192,-3.407346725463867,6.054712772369385,10.01140022277832,-5.759159088134766,0.7097408771514893,7.9097700119018555,1.721412181854248,-2.7372260093688965,4.206931114196777,-0.27121004462242126,0.152632936835289,0.878983736038208,0.36129748821258545,-50.67499923706055,-7.962500095367432,-85.34375,,,,wave hand
1761153358.6487195,-4.318126678466797,10.625368118286133,12.35357666015625,-5.519082069396973,1.6188963651657104,7.947012901306152,3.4477171897888184,-1.6059036254882812,3.092712879180908,-0.24259062111377716,0.19000861048698425,0.8837857842445374,0.35209256410598755,-51.66875076293945,-8.55625057220459,-86.125,,,,wave hand
1761153358.679381,-4.490468978881836,13.747872352600098,12.32844352722168,-5.478547096252441,2.09434175491333,7.863546371459961,3.5515644550323486,-0.5258938670158386,1.129392147064209,-0.22993791103363037,0.2152584195137024,0.8788034319877625,0.35846462845802307,-51.66875076293945,-8.96250057220459,-86.0250015258789,,,,wave hand
1761153358.6943822,-5.2923383712768555,11.41526985168457,12.010088920593262,-5.585574150085449,1.8801989555358887,7.842341423034668,1.3915449380874634,0.08619308471679688,-1.0623923540115356,-0.23582999408245087,0.21135902404785156,0.8714126944541931,0.3746352195739746,-51.08124923706055,-9.012499809265137,-86.11250305175781,,,,wave hand
1761153358.7090578,-5.482632637023926,8.247286796569824,11.404498100280762,-5.765729904174805,1.0713591575622559,7.864137649536133,-1.6749986410140991,0.36963456869125366,-2.822906017303467,-0.25702106952667236,0.18198265135288239,0.8617682456970215,0.39771604537963867,-50.73749923706055,-7.818749904632568,-85.9000015258789,,,,wave hand
1761153358.7662451,-4.875844955444336,2.5659821033477783,10.80728530883789,-5.9549174308776855,-0.06464743614196777,7.795568466186523,-3.3047871589660645,0.7239363789558411,-3.9102461338043213,-0.28858742117881775,0.13924679160118103,0.8486324548721313,0.4208926558494568,-50.10000228881836,-6.912499904632568,-84.6187515258789,,,,wave hand
1761153358.769196,-4.684353828430176,0.1890975683927536,8.480667114257812,-6.178696632385254,-1.3793854713439941,7.493804931640625,-4.7317681312561035,1.3629014492034912,-3.8577117919921875,-0.33208397030830383,0.08816466480493546,0.8333636522293091,0.43295764923095703,-49.6875,-5.525000095367432,-83.14375305175781,,,,wave hand
1761153358.7721865,-4.702305793762207,-2.995640516281128,5.833301067352295,-6.450344085693359,-2.557309627532959,6.934647560119629,-5.650509834289551,2.260873317718506,-3.1515514850616455,-0.3803189694881439,0.04369918256998062,0.8143125176429749,0.4362832009792328,-49.39374923706055,-4.675000190734863,-80.0999984741211,,,,wave hand
1761153358.7988007,-5.281567096710205,-8.043828010559082,4.744194507598877,-6.6775617599487305,-3.273426055908203,6.397730827331543,-4.034160137176514,2.749565601348877,-2.3940787315368652,-0.4164765775203705,0.021568389609456062,0.7943233251571655,0.4417380690574646,-48.98749923706055,-4.1875,-77.2750015258789,,,,wave hand
1761153358.8137977,-6.1181440353393555,-8.384921073913574,2.004673480987549,-6.810297966003418,-3.5583174228668213,6.098714828491211,-1.6737768650054932,2.208338975906372,-1.6903618574142456,-0.4345800578594208,0.017275571823120117,0.7809013724327087,0.4483690857887268,-49.38125228881836,-3.5875000953674316,-73.4124984741211,,,,wave hand
1761153358.843871,-7.532785415649414,-10.59185791015625,-0.18550710380077362,-6.840012073516846,-3.448101758956909,6.128697872161865,0.16004055738449097,0.866878867149353,-0.5321613550186157,-0.4325026869773865,0.023906191810965538,0.7812160849571228,0.4495234787464142,-48.65625,-3.8812501430511475,-73.54375457763672,,,,wave hand
1761153358.858937,-7.269484996795654,-9.914457321166992,0.039495062083005905,-6.7641282081604,-2.974684000015259,6.452436447143555,1.340232253074646,-0.8435438275337219,1.1550484895706177,-0.4118751287460327,0.03858134523034096,0.7955794930458069,0.4426327049732208,-48.66875076293945,-4.037499904632568,-74.9437484741211,,,,wave hand
1761153358.888969,-5.8775835037231445,-7.852336406707764,1.9651784896850586,-6.567840576171875,-2.3075144290924072,6.911943435668945,2.008518695831299,-2.213103771209717,2.5356040000915527,-0.3804435729980469,0.05451618507504463,0.8187885284423828,0.4264694154262543,-48.375,-4.349999904632568,-78.1187515258789,,,,wave hand
1761153358.9038696,-4.671188831329346,-5.115209102630615,4.127832412719727,-6.254827976226807,-1.5946688652038574,7.387168884277344,1.692090630531311,-2.9155986309051514,3.493440628051758,-0.34479644894599915,0.06784728914499283,0.8454770445823669,0.40209534764289856,-48.83124923706055,-5.300000190734863,-81.1937484741211,,,,wave hand
1761153358.918926,-3.527028799057007,-2.245234489440918,7.015758991241455,-5.870360374450684,-0.7723902463912964,7.821661472320557,1.5515916347503662,-3.104966878890991,3.9393723011016846,-0.3062784969806671,0.08680970966815948,0.8705328106880188,0.3752734363079071,-50.44375228881836,-6.200000286102295,-85.73125457763672,,,,wave hand
1761153358.9490004,-3.1165194511413574,3.8741064071655273,9.149689674377441,-5.508112907409668,0.1768651008605957,8.11575698852539,2.344494581222534,-2.6346006393432617,3.9931282997131348,-0.2696465849876404,0.11680566519498825,0.8888351917266846,0.3515952527523041,-51.06875228881836,-7.506249904632568,-87.6312484741211,,,,wave hand
1761153358.964073,-3.5234382152557373,8.162312507629395,11.463142395019531,-5.246038436889648,1.1602020263671875,8.207869529724121,3.530795097351074,-1.756176471710205,3.195338249206543,-0.23894140124320984,0.15673239529132843,0.8958925008773804,0.3401743471622467,-52.39374923706055,-8.27500057220459,-88.0250015258789,,,,wave hand
1761153358.9941468,-3.5437841415405273,11.537344932556152,12.065142631530762,-5.148955821990967,1.8418738842010498,8.144437789916992,4.111116886138916,-0.7751269340515137,1.5716584920883179,-0.22081220149993896,0.19008691608905792,0.8928323984146118,0.3434520661830902,-53.00625228881836,-8.80625057220459,-88.2562484741211,,,,wave hand
1761153359.008458,-4.411478519439697,12.18602180480957,11.8090238571167,-5.19990348815918,1.8614871501922607,8.107525825500488,2.3286120891571045,-0.11905763298273087,-0.535826563835144,-0.2199029177427292,0.1959977000951767,0.885958194732666,0.35819780826568604,-52.400001525878906,-8.9375,-87.78125,,,,wave hand
1761153359.0364609,-4.9751811027526855,9.763657569885254,11.515802383422852,-5.3371405601501465,1.2387491464614868,8.137354850769043,-0.7782484292984009,0.15827518701553345,-2.3134443759918213,-0.2346469908952713,0.17376096546649933,0.8774064183235168,0.3806650936603546,-52.0625,-8.33750057220459,-88.1500015258789,,,,wave hand
1761153359.0534563,-4.701109409332275,4.237939834594727,10.913802146911621,-5.490489482879639,0.2383894920349121,8.126118659973145,-2.762338876724243,0.4392732083797455,-3.6145873069763184,-0.2595716416835785,0.1358209103345871,0.8655914068222046,0.4061117172241211,-51.59375,-7.425000190734863,-87.1937484741211,,,,wave hand
1761153359.0693502,-4.515602111816406,0.7851139307022095,9.259797096252441,-5.674325942993164,-0.9828319549560547,7.941799163818359,-4.076920986175537,0.9438478946685791,-3.9139113426208496,-0.2956855297088623,0.08825696259737015,0.8516611456871033,0.4236203134059906,-50.96875,-6.318749904632568,-86.34375,,,,wave hand
1761153359.1134539,-5.106831073760986,-2.837660312652588,7.4741411209106445,-5.907759666442871,-2.1154208183288574,7.540522575378418,-5.14593505859375,1.7562986612319946,-3.191868543624878,-0.33709344267845154,0.04516265168786049,0.8354031443595886,0.43177530169487,-50.58124923706055,-5.375,-84.33125305175781,,,,wave hand
1761153359.117402,-6.2497944831848145,-8.384921073913574,5.738752365112305,-6.103102684020996,-2.761801242828369,7.166638374328613,-3.633432626724243,2.141143798828125,-2.3953003883361816,-0.3661961853504181,0.025065269321203232,0.8193004727363586,0.44047579169273376,-49.6875,-4.568749904632568,-81.6937484741211,,,,wave hand
1761153359.1414273,-6.526259899139404,-7.670419692993164,3.379819869995117,-6.193146705627441,-2.9422905445098877,7.015979766845703,-1.0677986145019531,1.5632652044296265,-1.625610113143921,-0.3766215145587921,0.02372732385993004,0.8098220825195312,0.44920092821121216,-49.79375076293945,-4.125,-79.6875,,,,wave hand
1761153359.1593409,-6.2904863357543945,-9.255009651184082,1.263841986656189,-6.138967037200928,-2.668032646179199,7.171526908874512,0.8417661786079407,0.27556130290031433,-0.39288410544395447,-0.36493274569511414,0.036095160990953445,0.8125936985015869,0.4530041515827179,-49.79999923706055,-4.306250095367432,-79.7249984741211,,,,wave hand
1761153359.1733387,-6.447269439697266,-10.127490997314453,0.5625054240226746,-5.906266212463379,-1.9536144733428955,7.585217475891113,2.640153408050537,-1.432417869567871,1.2405695915222168,-0.33147189021110535,0.05932972952723503,0.8278802037239075,0.44857653975486755,-50.23749923706055,-4.793750286102295,-82.35625457763672,,,,wave hand
1761153359.2038865,-4.757359504699707,-8.161115646362305,1.5139774084091187,-5.467115879058838,-1.0398125648498535,8.07870864868164,3.433056592941284,-2.872838258743286,2.784837007522583,-0.28540194034576416,0.08238250762224197,0.8517706394195557,0.43156179785728455,-51.46875,-5.368750095367432,-85.28125,,,,wave hand
1761153359.2189567,-2.4343318939208984,-4.071581840515137,4.170917987823486,-4.829093933105469,-0.12358975410461426,8.538189888000488,2.8808343410491943,-3.724384307861328,4.062767028808594,-0.2341042160987854,0.10008680075407028,0.8791729807853699,0.402781218290329,-53.34375,-6.493750095367432,-89.4437484741211,,,,wave hand
1761153359.234127,-0.5732768177986145,1.9783436059951782,8.276010513305664,-4.097189903259277,0.858901858329773,8.871946334838867,2.5216455459594727,-3.89420485496521,4.520915985107422,-0.18060381710529327,0.12326142936944962,0.9016937613487244,0.3730110228061676,-57.53125,-7.96875,-93.73125457763672,,,,wave hand
1761153359.264079,-1.0855157375335693,6.669878005981445,8.378936767578125,-3.4330081939697266,1.8982539176940918,8.991506576538086,3.6651854515075684,-3.4299473762512207,4.033445358276367,-0.13161396980285645,0.1561892032623291,0.9142632484436035,0.34986481070518494,-59.89374923706055,-9.1875,-96.0374984741211,,,,wave hand
1761153359.2790766,-0.9466846585273743,14.16795539855957,9.483602523803711,-3.0056042671203613,2.6576955318450928,8.952044486999512,3.9229705333709717,-2.3108420372009277,2.7359676361083984,-0.09878864139318466,0.18430796265602112,0.9170101881027222,0.339652419090271,-61.38750076293945,-9.568750381469727,-95.875,,,,wave hand
1761153359.30904,-2.133930206298828,15.473686218261719,13.12911605834961,-2.8301711082458496,2.8538103103637695,8.94885540008545,2.2113261222839355,-1.2906972169876099,0.6101566553115845,-0.08527130633592606,0.19136351346969604,0.9144189953804016,0.346333384513855,-62.962501525878906,-10.15625,-96.7750015258789,,,,wave hand
1761153359.3240435,-2.934602737426758,11.100505828857422,14.09016227722168,-2.8488707542419434,2.4510419368743896,9.061591148376465,-0.36041662096977234,-0.797118067741394,-1.486332893371582,-0.08950099349021912,0.17359372973442078,0.9092116951942444,0.36768046021461487,-62.806251525878906,-10.006250381469727,-96.8125,,,,wave hand
1761153359.3390374,-3.2900583744049072,6.884109020233154,11.923917770385742,-3.015249490737915,1.59513521194458,9.197821617126465,-2.728130340576172,-0.23023511469364166,-2.9976134300231934,-0.10989189147949219,0.13829512894153595,0.9016172289848328,0.394822359085083,-61.63125228881836,-8.375,-98.59375,,,,wave hand
1761153359.38385,-2.649759531021118,1.1788676977157593,10.024564743041992,-3.3179454803466797,0.4509086608886719,9.220847129821777,-4.229637145996094,0.69583660364151,-3.426440954208374,-0.14556148648262024,0.09402146190404892,0.8917211890220642,0.4180971086025238,-59.75,-7.5625,-98.20625305175781,,,,wave hand
1761153359.3868465,-2.7634575366973877,-2.6198391914367676,8.522555351257324,-3.7392895221710205,-0.6673555970191956,9.04480266571045,-4.983444690704346,1.8234938383102417,-2.971957206726074,-0.18975834548473358,0.05470525100827217,0.8795813918113708,0.43282294273376465,-58.35000228881836,-6.525000095367432,-96.45625305175781,,,,wave hand
1761153359.4140277,-3.6538915634155273,-6.172000885009766,6.747671604156494,-4.167457580566406,-1.4268059730529785,8.765422821044922,-3.9559695720672607,2.5247671604156494,-2.2254798412323,-0.22843678295612335,0.032513074576854706,0.8669633865356445,0.4417399764060974,-57.07500076293945,-5.918750286102295,-94.32500457763672,,,,wave hand
1761153359.4286058,-4.094321250915527,-7.347278118133545,4.8794355392456055,-4.474180698394775,-1.686951994895935,8.565746307373047,-2.0464046001434326,2.2706472873687744,-1.3299514055252075,-0.25005167722702026,0.02986295148730278,0.8586663007736206,0.4464019238948822,-55.82500076293945,-5.587500095367432,-91.9749984741211,,,,wave hand
1761153359.443599,-4.703502655029297,-8.562050819396973,3.3175852298736572,-4.59035062789917,-1.4677760601043701,8.544612884521484,0.3457435965538025,1.172311544418335,-0.12654684484004974,-0.250442236661911,0.042112190276384354,0.8596630692481995,0.4432658553123474,-54.85625076293945,-5.200000286102295,-91.3812484741211,,,,wave hand
1761153359.4746044,-5.461090087890625,-6.700995445251465,2.6617279052734375,-4.505673885345459,-1.0055181980133057,8.655861854553223,1.4697356224060059,-0.28154778480529785,1.5240110158920288,-0.23580431938171387,0.05675295367836952,0.8711184859275818,0.42699894309043884,-55.06875228881836,-5.881249904632568,-92.375,,,,wave hand
1761153359.4895992,-4.403100967407227,-4.423447132110596,5.285157203674316,-4.236769676208496,-0.4378920793533325,8.837088584899902,1.4404140710830688,-1.4079833030700684,3.036513328552246,-0.21145881712436676,0.06980617344379425,0.8894281387329102,0.39916154742240906,-55.38125228881836,-6.25,-93.51250457763672,,,,wave hand
1761153359.518732,-3.1500303745269775,-1.119026780128479,10.14903450012207,-3.8673205375671387,0.31189990043640137,9.01014232635498,1.5894652605056763,-1.974866271018982,3.9613633155822754,-0.18065838515758514,0.09016679972410202,0.908644437789917,0.36551040410995483,-56.90625,-7.0625,-95.3375015258789,,,,wave hand
1761153359.5337307,-3.443251371383667,4.462942123413086,13.37566089630127,-3.525041103363037,1.2765088081359863,9.06535816192627,2.684135675430298,-1.688981294631958,4.308334827423096,-0.14971746504306793,0.12465111166238785,0.9224275946617126,0.3334280848503113,-58.38750076293945,-8.05625057220459,-95.88750457763672,,,,wave hand
1761153359.5488124,-2.3924431800842285,7.891831398010254,13.42951774597168,-3.2700531482696533,2.2059364318847656,8.98202133178711,3.8435580730438232,-1.0695639848709106,3.4848885536193848,-0.12447603791952133,0.16342118382453918,0.9270040392875671,0.3137878477573395,-59.931251525878906,-9.625,-95.4124984741211,,,,wave hand
1761153359.5788565,-0.4942866861820221,13.01063060760498,12.501982688903809,-3.2283167839050293,2.5940799713134766,8.892965316772461,3.1019675731658936,-0.3988339304924011,1.6266363859176636,-0.1167234480381012,0.1819765269756317,0.9256808161735535,0.31044378876686096,-59.900001525878906,-10.02500057220459,-96.1187515258789,,,,wave hand
1761153359.593984,-0.4823184907436371,15.842307090759277,13.610238075256348,-3.439199447631836,2.3249123096466064,8.888351440429688,0.17103613913059235,0.3940691649913788,-0.6274563670158386,-0.12910039722919464,0.17409202456474304,0.9209050536155701,0.3239739239215851,-59.31875228881836,-9.737500190734863,-95.32500457763672,,,,wave hand
1761153359.624092,-0.8461517691612244,13.29427719116211,12.858634948730469,-3.8565707206726074,1.657956600189209,8.866461753845215,-1.921788215637207,1.1161118745803833,-2.803358316421509,-0.15672780573368073,0.1533852368593216,0.9101251363754272,0.35154175758361816,-57.681251525878906,-9.581250190734863,-94.39375305175781,,,,wave hand
1761153359.639171,-0.8485454320907593,6.537031173706055,11.58162784576416,-4.369588375091553,0.9057461023330688,8.736270904541016,-2.3383982181549072,1.9371148347854614,-4.164366245269775,-0.1912279576063156,0.13475212454795837,0.8918808102607727,0.38706889748573303,-55.3125,-8.96250057220459,-93.30000305175781,,,,wave hand
1761153359.6541698,-1.136979103088379,0.4703502953052521,9.454878807067871,-4.894253253936768,0.24687469005584717,8.498320579528809,-1.5002912282943726,2.5198802947998047,-4.771566390991211,-0.22612318396568298,0.12538954615592957,0.8673300743103027,0.42530500888824463,-52.681251525878906,-7.03125,-89.6312484741211,,,,wave hand
1761153359.6842268,-1.9208961725234985,-1.6540052890777588,7.435842990875244,-5.386336803436279,-0.3612339496612549,8.191031455993652,-0.6450798511505127,2.8350865840911865,-4.657945156097412,-0.2605134844779968,0.12103299796581268,0.8397270441055298,0.46080607175827026,-51.13750076293945,-6.03125,-87.7249984741211,,,,wave hand
1761153359.726525,-2.549226760864258,-4.096714973449707,6.069074630737305,-5.807557106018066,-0.949955940246582,7.848947525024414,-0.5387892723083496,2.94748592376709,-4.279208660125732,-0.29344093799591064,0.11766114830970764,0.8120138049125671,0.49059346318244934,-49.79375076293945,-5.325000286102295,-84.40625,,,,wave hand
1761153359.7295296,-3.6108062267303467,-7.2263994216918945,4.993133068084717,-6.128215789794922,-1.4593279361724854,7.520069122314453,-0.5106894969940186,2.699474573135376,-3.615809202194214,-0.32162052392959595,0.11521447449922562,0.7872830629348755,0.5132943987846375,-49.06875228881836,-4.8125,-82.2437515258789,,,,wave hand
1761153359.7435236,-4.831562519073486,-6.608840465545654,2.781409740447998,-6.3696136474609375,-1.9338334798812866,7.205860614776611,-0.6805100440979004,2.236438751220703,-2.7361631393432617,-0.34746474027633667,0.1095312088727951,0.768545925617218,0.5259358286857605,-49.0,-3.856250047683716,-79.08125305175781,,,,wave hand
1761153359.7585218,-5.323455810546875,-5.913487911224365,1.5881801843643188,-6.536928653717041,-2.3484573364257812,6.9274396896362305,-1.32436203956604,1.7709593772888184,-1.7734395265579224,-0.3698783218860626,0.10054615139961243,0.7568755745887756,0.5293579697608948,-48.587501525878906,-3.762500047683716,-76.48125457763672,,,,wave hand
1761153359.7885084,-6.094207763671875,-8.641040802001953,1.1489472389221191,-6.625305652618408,-2.5747883319854736,6.7610578536987305,-1.3940006494522095,1.0916773080825806,-0.7398555278778076,-0.38312530517578125,0.09281554818153381,0.754144012928009,0.5252305865287781,-48.89374923706055,-3.418750047683716,-75.6312484741211,,,,wave hand
1761153359.8045926,-6.630383014678955,-8.910325050354004,1.3859176635742188,-6.640292644500732,-2.591266393661499,6.740026473999023,-1.1178895235061646,0.13872750103473663,0.4684359133243561,-0.3859303891658783,0.08677196502685547,0.7615184187889099,0.5134375095367432,-48.32500076293945,-3.6812500953674316,-74.8187484741211,,,,wave hand
1761153359.833663,-6.380247592926025,-7.316161155700684,1.8083951473236084,-6.577688694000244,-2.4400687217712402,6.856835842132568,-0.9786122441291809,-0.8533176779747009,1.6706186532974243,-0.3794856369495392,0.08067663758993149,0.7785823345184326,0.49324607849121094,-48.65625,-3.71875,-75.95000457763672,,,,wave hand
1761153359.8492103,-5.607101917266846,-6.498733043670654,2.8891236782073975,-6.42476749420166,-2.1412811279296875,7.097422122955322,-0.8075699806213379,-1.728076696395874,2.7213070392608643,-0.3640511631965637,0.07564735412597656,0.8025433421134949,0.46654969453811646,-48.525001525878906,-4.493750095367432,-78.46875,,,,wave hand
1761153359.8761947,-4.466532230377197,-5.206167221069336,4.772918224334717,-6.172949314117432,-1.745928168296814,7.421761512756348,-0.5729977488517761,-2.412245750427246,3.5044362545013428,-0.34142282605171204,0.07179957628250122,0.8299959897994995,0.4351803958415985,-49.493751525878906,-5.150000095367432,-80.73750305175781,,,,wave hand
1761153359.8942528,-3.7161262035369873,-1.8825979232788086,6.818284034729004,-5.861789226531982,-1.2766549587249756,7.761809349060059,-0.39095988869667053,-2.7042393684387207,3.9308202266693115,-0.3150653839111328,0.07160183787345886,0.8570665717124939,0.4013027548789978,-49.806251525878906,-5.375,-84.0250015258789,,,,wave hand
1761153359.9091864,-3.3367342948913574,2.9441773891448975,8.824153900146484,-5.578864097595215,-0.7516390085220337,8.034141540527344,-0.023219013586640358,-2.4721105098724365,3.901498556137085,-0.2904474139213562,0.07844110578298569,0.8792403936386108,0.3693557679653168,-50.993751525878906,-6.675000190734863,-85.9937515258789,,,,wave hand
1761153359.9391866,-3.9363410472869873,5.808167934417725,10.748641014099121,-5.362925052642822,-0.1489804983139038,8.212974548339844,0.6279633641242981,-1.7549548149108887,3.5398664474487305,-0.26885735988616943,0.0954650267958641,0.893936276435852,0.34565892815589905,-51.98125076293945,-7.393750190734863,-87.3375015258789,,,,wave hand
1761153359.9541848,-3.324766159057617,6.110963344573975,11.961019515991211,-5.239377975463867,0.5145609378814697,8.27769660949707,2.179561138153076,-0.9962601065635681,2.39143967628479,-0.250780314207077,0.12332199513912201,0.8989009261131287,0.3374583423137665,-53.0625,-8.081250190734863,-87.66875457763672,,,,wave hand
1761153359.9831886,-3.6514980792999268,11.410482406616211,10.247173309326172,-5.245734214782715,0.9021676778793335,8.24041748046875,2.726896286010742,-0.2339003086090088,0.8166291117668152,-0.24335040152072906,0.1441516876220703,0.8961619138717651,0.3418987989425659,-52.993751525878906,-8.100000381469727,-87.1187515258789,,,,wave hand
1761153359.9983983,-4.338472843170166,12.68030834197998,9.312457084655762,-5.344695091247559,0.7600047588348389,8.19101619720459,1.0176953077316284,0.3219870626926422,-0.8437026143074036,-0.2489834427833557,0.14326302707195282,0.8892123103141785,0.3560679852962494,-51.95624923706055,-8.256250381469727,-87.01875305175781,,,,wave hand
1761153360.0144904,-4.1757049560546875,8.644631385803223,11.11726188659668,-5.481642246246338,0.1996479034423828,8.133132934570312,-0.8381132483482361,0.5577810406684875,-2.362313747406006,-0.2640596032142639,0.12545830011367798,0.8781418800354004,0.3786814212799072,-51.98125076293945,-7.806250095367432,-86.16875457763672,,,,wave hand
1761153360.044389,-3.7556214332580566,4.5898051261901855,10.56313419342041,-5.634828090667725,-0.6307075023651123,8.005437850952148,-1.9963138103485107,0.8546615839004517,-3.576713800430298,-0.28701525926589966,0.09796898066997528,0.8619771003723145,0.40622639656066895,-51.556251525878906,-6.806250095367432,-85.09375,,,,wave hand
1761153360.0588317,-3.793919563293457,0.16037388145923615,8.629072189331055,-5.804375648498535,-1.5928717851638794,7.74648904800415,-2.610844135284424,1.4105489253997803,-4.172918319702148,-0.3172883987426758,0.06709644198417664,0.8406956791877747,0.433655321598053,-50.42499923706055,-5.474999904632568,-83.0374984741211,,,,wave hand
1761153360.0738273,-3.765195846557617,-4.2582855224609375,8.459124565124512,-5.992700576782227,-2.5245275497436523,7.345094203948975,-2.7892167568206787,2.0788354873657227,-4.108166694641113,-0.3521842062473297,0.039982497692108154,0.8152835965156555,0.4579086899757385,-50.14374923706055,-4.862500190734863,-79.95000457763672,,,,wave hand
1761153360.1039217,-4.707093238830566,-8.395692825317383,7.714702129364014,-6.181933403015137,-3.2988929748535156,6.86564826965332,-2.4813406467437744,2.571192979812622,-3.6866695880889893,-0.38681602478027344,0.021030355244874954,0.7885924577713013,0.47754916548728943,-49.72500228881836,-3.793750047683716,-77.34375,,,,wave hand
1761153360.1189253,-6.578919887542725,-10.941329002380371,4.818397521972656,-6.363687038421631,-3.8617684841156006,6.389549255371094,-1.6627813577651978,2.73612642288208,-2.948744297027588,-0.4174126982688904,0.010078519582748413,0.7652097940444946,0.49001947045326233,-50.1875,-3.424999952316284,-74.29375457763672,,,,wave hand
1761153360.1488924,-8.091700553894043,-10.788135528564453,2.837660312652588,-6.532554626464844,-4.236960411071777,5.967411994934082,-1.6407902240753174,2.3683855533599854,-1.7306790351867676,-0.4425447881221771,0.0021645950619131327,0.7499572038650513,0.49164390563964844,-50.03125,-3.112499952316284,-70.98750305175781,,,,wave hand
1761153360.1639009,-8.912718772888184,-12.27338981628418,2.445103406906128,-6.661127090454102,-4.330757141113281,5.754132270812988,-1.3561270236968994,1.504622220993042,-0.40998831391334534,-0.45466575026512146,0.0003750899340957403,0.74631667137146,0.4860970079898834,-49.85000228881836,-2.71875,-68.7750015258789,,,,wave hand
1761153360.179294,-9.001283645629883,-11.69771957397461,2.4834015369415283,-6.727797985076904,-4.139203071594238,5.817202568054199,-0.2919997274875641,0.13384057581424713,0.8850460052490234,-0.45109525322914124,0.004425158724188805,0.7555005550384521,0.4750920236110687,-49.48125076293945,-2.637500047683716,-69.3499984741211,,,,wave hand
1761153360.2083669,-8.344229698181152,-9.748099327087402,3.195509433746338,-6.717888832092285,-3.734200954437256,6.096050262451172,0.44470375776290894,-1.1941804885864258,2.013925075531006,-0.43491414189338684,0.011990919709205627,0.7746275663375854,0.45897501707077026,-48.95000076293945,-3.6875,-71.34375,,,,wave hand
1761153360.2243652,-7.839171409606934,-6.958312034606934,5.179837226867676,-6.613736629486084,-3.1847293376922607,6.507848739624023,0.8625355958938599,-2.1617910861968994,2.815380096435547,-0.4096543788909912,0.022106092423200607,0.7991589903831482,0.43936264514923096,-48.5625,-4.050000190734863,-73.45000457763672,,,,wave hand
1761153360.254374,-7.036105155944824,-3.3020265102386475,9.116178512573242,-6.438018321990967,-2.4776291847229004,6.974911212921143,1.309688925743103,-2.56251859664917,3.1990034580230713,-0.3780321776866913,0.03989512100815773,0.8235835433006287,0.4209635257720947,-48.40625,-4.518750190734863,-76.625,,,,wave hand
1761153360.2693663,-7.4466142654418945,1.8131823539733887,12.60730266571045,-6.247684001922607,-1.53677499294281,7.405462265014648,2.679248809814453,-2.3303897380828857,2.960766077041626,-0.3419734537601471,0.07489723712205887,0.8406779170036316,0.4131648540496826,-48.89374923706055,-5.950000286102295,-79.96875,,,,wave hand
1761153360.2833664,-7.966034412384033,5.373722076416016,13.022599220275879,-6.074533939361572,-0.47936415672302246,7.688066005706787,5.086057662963867,-1.5704734325408936,2.0383596420288086,-0.30504167079925537,0.12288683652877808,0.8454919457435608,0.42070403695106506,-49.1875,-6.306250095367432,-81.8125,,,,wave hand
1761153360.3143578,-7.595020294189453,12.262618064880371,11.933492660522461,-5.966968536376953,0.14028096199035645,7.78535270690918,5.128818511962891,-0.8948565125465393,0.520970344543457,-0.28181928396224976,0.15417824685573578,0.8412501215934753,0.43486228585243225,-49.09375,-6.681250095367432,-83.67500305175781,,,,wave hand
1761153360.329356,-7.490896701812744,12.35597038269043,12.85025691986084,-5.882777214050293,0.03254342079162598,7.850348949432373,2.0586097240448,-0.4709160029888153,-1.046509861946106,-0.2768549919128418,0.15241917967796326,0.8336362838745117,0.45295724272727966,-48.88125228881836,-7.056250095367432,-83.1187515258789,,,,wave hand
1761153360.3443534,-6.928391456604004,7.074403285980225,13.269144058227539,-5.783987045288086,-0.6747806072235107,7.8946990966796875,-0.9566211104393005,-0.5637675523757935,-2.646976947784424,-0.2866896092891693,0.12421315908432007,0.8220076560974121,0.4761130213737488,-49.31875228881836,-6.237500190734863,-83.5562515258789,,,,wave hand
1761153360.374352,-5.901519775390625,3.072237014770508,12.008892059326172,-5.692827224731445,-1.7162795066833496,7.802705764770508,-2.8979508876800537,-0.1777006983757019,-3.8882551193237305,-0.3087066113948822,0.08371865004301071,0.8039321899414062,0.50138258934021,-50.39374923706055,-4.793750286102295,-82.58125305175781,,,,wave hand
1761153360.3883507,-5.409626483917236,-3.1368653774261475,10.307014465332031,-5.633212566375732,-2.87255859375,7.500095844268799,-3.677414894104004,0.5871025919914246,-4.3354082107543945,-0.3407043218612671,0.04065345972776413,0.780326783657074,0.5228366255760193,-50.53125,-3.8375000953674316,-81.54375457763672,,,,wave hand
1761153360.4188163,-6.025989055633545,-9.027613639831543,7.635712146759033,-5.615628719329834,-3.847370147705078,7.063891410827637,-3.990177869796753,1.3348016738891602,-3.9688892364501953,-0.3740670382976532,0.006213492713868618,0.7562395334243774,0.5367839336395264,-52.25,-2.9625000953674316,-79.0250015258789,,,,wave hand
1761153360.4333148,-9.245434761047363,-14.85971736907959,3.276893377304077,-5.61008358001709,-4.484198570251465,6.682441711425781,-3.1032016277313232,1.4129923582077026,-2.675076723098755,-0.39888742566108704,-0.017189456149935722,0.7401532530784607,0.5410789847373962,-52.931251525878906,-2.137500047683716,-75.64375305175781,,,,wave hand
1761153360.4493022,-8.448352813720703,-12.41222095489502,0.6199527978897095,-5.583779335021973,-4.770216941833496,6.50404167175293,-2.212559938430786,0.6433022022247314,-1.095379114151001,-0.4092320203781128,-0.032071441411972046,0.7374710440635681,0.5363181233406067,-53.08124923706055,-2.0562500953674316,-74.30000305175781,,,,wave hand
1761153360.479305,-6.777592182159424,-9.579347610473633,-0.20345941185951233,-5.435615062713623,-4.492969512939453,6.819342613220215,-0.5473414063453674,-0.9510561227798462,0.5063095688819885,-0.3892872929573059,-0.029739856719970703,0.7522211074829102,0.5307866930961609,-53.337501525878906,-1.84375,-76.5,,,,wave hand
1761153360.507304,-5.6633524894714355,-9.614055633544922,-0.7192888259887695,-5.132346153259277,-3.7051918506622314,7.494443893432617,2.798978328704834,-2.9265942573547363,1.9393993616104126,-0.34334003925323486,-0.011739988811314106,0.7797860503196716,0.5233674645423889,-53.79999923706055,-2.5875000953674316,-81.66875457763672,,,,wave hand
1761153360.5239046,-4.156556129455566,-5.480238914489746,1.087909460067749,-4.711725234985352,-2.7401344776153564,8.156434059143066,3.8802099227905273,-3.9174177646636963,3.045065402984619,-0.29014793038368225,0.009685622528195381,0.8107067346572876,0.5084043145179749,-54.75,-3.2875001430511475,-86.5999984741211,,,,wave hand
1761153360.5389004,-2.7287497520446777,-2.086057424545288,5.476648807525635,-4.232463836669922,-1.5703070163726807,8.709563255310059,4.085460662841797,-3.8428921699523926,3.586292028427124,-0.23326902091503143,0.04090328514575958,0.8388230800628662,0.490192174911499,-55.41250228881836,-4.606250286102295,-91.0687484741211,,,,wave hand
1761153360.5540862,-2.6054773330688477,0.5553244948387146,6.667484760284424,-3.817138910293579,-0.17143332958221436,9.035273551940918,5.171578884124756,-3.0939714908599854,3.71701717376709,-0.17836253345012665,0.08759786188602448,0.8594222068786621,0.47106996178627014,-56.493751525878906,-5.349999904632568,-93.8375015258789,,,,wave hand
1761153360.5839915,-2.080073356628418,2.494173049926758,5.857237339019775,-3.4797139167785645,1.1169229745864868,9.10385513305664,5.885069847106934,-2.0677177906036377,3.4738929271698,-0.13327398896217346,0.13501529395580292,0.8702985048294067,0.4545210599899292,-59.04999923706055,-7.375,-96.03125,,,,wave hand
1761153360.5990455,-1.4864505529403687,11.30635929107666,8.607529640197754,-3.3101630210876465,1.9682354927062988,9.022470474243164,4.721982002258301,-1.0268033742904663,2.4012136459350586,-0.10715194046497345,0.16928553581237793,0.8734707236289978,0.44374510645866394,-59.21875,-8.5,-96.41875457763672,,,,wave hand
1761153360.629082,-2.271564483642578,11.5768404006958,9.770838737487793,-3.2977559566497803,2.260537624359131,8.95828628540039,2.4520070552825928,-0.16059647500514984,0.8740504384040833,-0.09958509355783463,0.18301184475421906,0.8713159561157227,0.4442950487136841,-59.75,-8.40000057220459,-96.4000015258789,,,,wave hand
1761153360.6572008,-2.665318250656128,7.697946548461914,8.746360778808594,-3.381356716156006,2.0446295738220215,8.97897720336914,0.23700958490371704,0.042210787534713745,-0.7496293783187866,-0.10621614009141922,0.17627839744091034,0.8658943772315979,0.4559286832809448,-59.431251525878906,-8.300000190734863,-95.7750015258789,,,,wave hand
1761153360.6591442,-2.4331352710723877,5.266008377075195,7.298208713531494,-3.5363550186157227,1.396891474723816,9.043173789978027,-1.844819188117981,0.24379631876945496,-2.0422203540802,-0.12598997354507446,0.15234972536563873,0.8585532903671265,0.47307756543159485,-58.44375228881836,-7.987500190734863,-96.0562515258789,,,,wave hand
1761153360.6891649,-2.162653923034668,2.0190353393554688,7.3915605545043945,-3.735962390899658,0.4086257219314575,9.061552047729492,-3.5063726902008057,0.6274197101593018,-2.5712294578552246,-0.15779848396778107,0.11509503424167633,0.8505058884620667,0.4883570671081543,-57.868751525878906,-6.587500095367432,-96.0250015258789,,,,wave hand
1761153360.704086,-1.8191665410995483,-2.217707633972168,7.476534843444824,-3.9806156158447266,-0.6942050457000732,8.939177513122559,-4.736655235290527,1.1857504844665527,-2.3586485385894775,-0.19715289771556854,0.07426441460847855,0.842002272605896,0.4966365098953247,-57.11249923706055,-5.46875,-94.26875305175781,,,,wave hand
1761153360.7337866,-3.574901580810547,-7.685978412628174,5.841678619384766,-4.189745903015137,-1.483022928237915,8.745443344116211,-4.522852420806885,1.406883716583252,-1.6512664556503296,-0.22836202383041382,0.04592989385128021,0.8347732424736023,0.4988935887813568,-57.181251525878906,-4.974999904632568,-92.98750305175781,,,,wave hand
1761153360.7488654,-4.405494689941406,-8.892373085021973,4.371983528137207,-4.266968250274658,-1.7326911687850952,8.661806106567383,-2.2003426551818848,0.9633955955505371,-0.8131594061851501,-0.2389976680278778,0.03744010254740715,0.8316735625267029,0.4997974634170532,-56.84375,-4.512500286102295,-92.16875457763672,,,,wave hand
1761153360.778898,-3.434873580932617,-6.766820430755615,3.905223846435547,-4.13944673538208,-1.5363457202911377,8.76017951965332,0.04519789293408394,-0.18136589229106903,0.15689462423324585,-0.2275885045528412,0.041366495192050934,0.8368444442749023,0.49616914987564087,-56.84375,-4.568749904632568,-91.89375305175781,,,,wave hand
1761153360.808855,-3.284074306488037,-5.961360931396484,4.573049545288086,-3.795332193374634,-0.906803548336029,9.00051498413086,1.8680198192596436,-1.5887993574142456,1.3615208864212036,-0.19489556550979614,0.05721789225935936,0.8496856093406677,0.4865967333316803,-58.06875228881836,-5.4375,-95.1624984741211,,,,wave hand
1761153360.81186,-1.8694329261779785,-3.428889513015747,6.879321575164795,-3.2964906692504883,0.015156865119934082,9.23953628540039,3.385409116744995,-2.534418821334839,2.430535078048706,-0.1493956297636032,0.08219852298498154,0.8654830455780029,0.4710238575935364,-59.65625,-6.15625,-97.42500305175781,,,,wave hand
1761153360.8526394,-1.5271424055099487,1.0149034261703491,9.083864212036133,-2.781827688217163,1.1603918075561523,9.335472106933594,4.254059314727783,-2.604057550430298,2.969318151473999,-0.1003434956073761,0.1188155934214592,0.8787899613380432,0.4511566162109375,-61.8125,-7.150000095367432,-99.20000457763672,,,,wave hand
1761153360.8557212,-2.119568347930908,4.709486961364746,9.247828483581543,-2.329028844833374,2.4352409839630127,9.213106155395508,5.258321762084961,-2.0567221641540527,3.162351608276367,-0.05340201407670975,0.16604501008987427,0.8858099579811096,0.43002089858055115,-63.58124923706055,-8.387499809265137,-99.5,,,,wave hand
1761153360.868747,-1.115436315536499,7.975608825683594,8.163509368896484,-2.0257866382598877,3.4943878650665283,8.939885139465332,5.608958721160889,-1.2955840826034546,2.704202651977539,-0.018796531483530998,0.2097499966621399,0.8861191868782043,0.4128492772579193,-64.64375305175781,-9.375,-98.70000457763672,,,,wave hand
1761153360.89865,-1.2578579187393188,15.011713981628418,9.961133003234863,-1.951238751411438,3.9254367351531982,8.776087760925293,3.5821075439453125,-0.3841731548309326,1.491024374961853,-0.007057134993374348,0.22944945096969604,0.8844651579856873,0.4062320291996002,-65.7125015258789,-10.28125,-97.3062515258789,,,,wave hand
1761153360.9276466,-1.9376516342163086,12.206367492675781,11.75037956237793,-2.06846022605896,3.774059534072876,8.815557479858398,0.4068301320075989,0.15338826179504395,-0.15586838126182556,-0.014083869755268097,0.2246926724910736,0.8820371031761169,0.41391468048095703,-65.0687484741211,-10.05625057220459,-97.53125,,,,wave hand
1761153360.9436452,-2.1853933334350586,9.688258171081543,10.83600902557373,-2.3314571380615234,3.1988375186920166,8.975959777832031,-1.8374887704849243,0.3879605233669281,-1.712352991104126,-0.035477008670568466,0.20310364663600922,0.878145158290863,0.43168434500694275,-64.5250015258789,-9.881250381469727,-97.3187484741211,,,,wave hand
1761153360.9604957,-2.1399142742156982,5.8919453620910645,9.239450454711914,-2.681494951248169,2.319242000579834,9.146956443786621,-3.501485824584961,0.8216748237609863,-2.524803876876831,-0.06831605732440948,0.17066696286201477,0.8732558488845825,0.4512537121772766,-62.868751525878906,-9.137499809265137,-98.2750015258789,,,,wave hand
1761153360.973573,-2.3038785457611084,0.19149121642112732,8.258058547973633,-3.051736354827881,1.3558310270309448,9.224139213562012,-4.2540717124938965,1.3494623899459839,-2.5199167728424072,-0.1061566099524498,0.13634955883026123,0.868513822555542,0.4645678400993347,-61.70624923706055,-8.318750381469727,-98.0250015258789,,,,wave hand
1761153361.0040302,-3.0279548168182373,-5.348588943481445,7.7769365310668945,-3.3572301864624023,0.6718230247497559,9.193137168884277,-3.86800479888916,1.5486044883728027,-1.5584149360656738,-0.13634200394153595,0.11336400359869003,0.8654947876930237,0.4684852063655853,-59.83124923706055,-7.081250190734863,-96.5687484741211,,,,wave hand
1761153361.0331273,-4.383951663970947,-5.982903480529785,6.282108306884766,-3.52705979347229,0.3983495235443115,9.145341873168945,-2.091608762741089,1.2016329765319824,-0.4429750442504883,-0.15142150223255157,0.10463324189186096,0.8662390112876892,0.4644925892353058,-59.181251525878906,-6.762500286102295,-96.4625015258789,,,,wave hand
1761153361.0361264,-3.518651008605957,-5.037415504455566,5.950589179992676,-3.500077247619629,0.5665795803070068,9.146833419799805,-0.46670717000961304,0.38673877716064453,0.7543208599090576,-0.14739787578582764,0.10988376289606094,0.8718189597129822,0.45401668548583984,-59.72500228881836,-6.643750190734863,-96.25,,,,wave hand
1761153361.064094,-3.754424571990967,-4.580230236053467,7.895421981811523,-3.3003716468811035,1.1965385675430298,9.160346984863281,1.6652125120162964,-0.616301953792572,1.8245567083358765,-0.1254357397556305,0.13182444870471954,0.880034327507019,0.4386659562587738,-60.00625228881836,-7.481250286102295,-96.26250457763672,,,,wave hand
1761153361.0791,-2.457071542739868,1.2303310632705688,12.71501636505127,-3.1244289875030518,2.159266710281372,9.044977188110352,3.4196174144744873,-0.758022665977478,2.5490429401397705,-0.09880972653627396,0.1709638088941574,0.8860918283462524,0.4193440079689026,-60.431251525878906,-8.131250381469727,-96.41875457763672,,,,wave hand
1761153361.12316,-3.0279548168182373,6.4556474685668945,14.513836860656738,-3.155500888824463,3.3324313163757324,8.670284271240234,4.735421180725098,0.29022207856178284,2.6528899669647217,-0.07955854386091232,0.22750814259052277,0.8854855298995972,0.39727315306663513,-60.85000228881836,-9.418749809265137,-93.6812515258789,,,,wave hand
1761153361.1261528,-2.9357995986938477,5.810561180114746,10.634943008422852,-3.4129347801208496,4.267022132873535,8.147422790527344,5.486785411834717,1.8100547790527344,2.4317567348480225,-0.07709270715713501,0.2807055711746216,0.8786895871162415,0.37837252020835876,-59.84375,-10.58750057220459,-89.6875,,,,wave hand
1761153361.1538682,-2.4474971294403076,12.886161804199219,11.08973503112793,-3.910705089569092,4.487720012664795,7.797619342803955,2.8441824913024902,2.8570778369903564,0.9168109893798828,-0.10049612075090408,0.3040861189365387,0.8734250664710999,0.3668254613876343,-58.125,-10.762499809265137,-87.84375,,,,wave hand
1761153361.1688666,-4.606560230255127,11.128032684326172,12.612090110778809,-4.575175762176514,3.940669536590576,7.731429100036621,-0.8710999488830566,3.342104911804199,-0.6543344259262085,-0.14507655799388885,0.2913661301136017,0.8717183470726013,0.3662864863872528,-55.72500228881836,-10.68125057220459,-84.9937515258789,,,,wave hand
1761153361.183949,-5.329439640045166,12.004105567932129,8.587183952331543,-5.323435306549072,2.8825173377990723,7.719342231750488,-4.331040859222412,3.3628742694854736,-2.3219964504241943,-0.2025996595621109,0.2559509575366974,0.8687737584114075,0.3723905086517334,-52.3125,-9.5,-83.9000015258789,,,,wave hand
1761153361.2140164,-5.341407775878906,5.395264625549316,6.462828159332275,-6.035890102386475,1.769173502922058,7.528224468231201,-5.022540092468262,3.4178521633148193,-3.111234426498413,-0.2602131962776184,0.22042587399482727,0.8592385053634644,0.3813275098800659,-50.275001525878906,-8.818750381469727,-81.8125,,,,wave hand
1761153361.2436454,-6.398200035095215,2.940586805343628,4.489272117614746,-6.635580062866211,0.7428722381591797,7.18702507019043,-4.265067100524902,3.383643627166748,-3.2346291542053223,-0.31288713216781616,0.18918369710445404,0.8451193571090698,0.3899802565574646,-48.01874923706055,-7.987500190734863,-80.0250015258789,,,,wave hand
1761153361.2456412,-6.9786577224731445,1.8395124673843384,2.514518976211548,-7.060827732086182,-0.17489051818847656,6.808100700378418,-3.8521223068237305,3.031785249710083,-2.963405132293701,-0.3571794927120209,0.15945161879062653,0.8308393955230713,0.3958585858345032,-47.0625,-6.806250095367432,-77.5374984741211,,,,wave hand
1761153361.273784,-7.8463521003723145,-2.5372586250305176,1.9831308126449585,-7.271554470062256,-0.8802828788757324,6.5257720947265625,-3.2522528171539307,2.1545827388763428,-2.3171095848083496,-0.38672688603401184,0.13354462385177612,0.8204510807991028,0.3993346393108368,-46.45000076293945,-6.756249904632568,-75.8125,,,,wave hand
1761153361.2897234,-8.186248779296875,-4.921324253082275,2.313453197479248,-7.300408840179443,-1.319069266319275,6.418739318847656,-2.3225157260894775,0.9023090600967407,-1.496106743812561,-0.40006035566329956,0.11313210427761078,0.8172106742858887,0.3991487920284271,-45.91250228881836,-5.368750095367432,-74.5250015258789,,,,wave hand
1761153361.3317943,-7.712308406829834,-5.513750076293945,2.340980052947998,-7.1935930252075195,-1.4980659484863281,6.499547958374023,-1.637125015258789,-0.3401908576488495,-0.364784300327301,-0.3989894688129425,0.09765168279409409,0.8228117823600769,0.3927496671676636,-46.47500228881836,-6.037499904632568,-74.79375457763672,,,,wave hand
1761153361.3347178,-6.4556474685668945,-5.827316761016846,2.3457672595977783,-6.977366924285889,-1.4371726512908936,6.7444047927856445,-1.0983418226242065,-1.4507439136505127,0.8373985290527344,-0.3855172395706177,0.08732088655233383,0.836509644985199,0.3794775903224945,-47.431251525878906,-5.8125,-77.0875015258789,,,,wave hand
1761153361.3637178,-4.946457386016846,-5.5532450675964355,2.9106664657592773,-6.65635871887207,-1.1902785301208496,7.107195854187012,-0.6120930910110474,-2.338942050933838,1.9320690631866455,-0.3621588349342346,0.08123164623975754,0.8561370372772217,0.35954391956329346,-48.337501525878906,-6.006249904632568,-79.80000305175781,,,,wave hand
1761153361.3780143,-3.442054510116577,-3.889665126800537,5.572394371032715,-6.25513219833374,-0.7940914630889893,7.515241622924805,-0.33476027846336365,-2.90338134765625,2.815380096435547,-0.3324149250984192,0.08037730306386948,0.8782936334609985,0.33412590622901917,-49.243751525878906,-6.862500190734863,-82.125,,,,wave hand
1761153361.3934402,-1.1692931652069092,-0.2932209074497223,10.42430305480957,-5.86539363861084,-0.20296573638916016,7.860793113708496,0.37750858068466187,-2.831299304962158,3.253981351852417,-0.3012888729572296,0.09259041398763657,0.8969724774360657,0.309987872838974,-51.45000076293945,-7.543750286102295,-86.1624984741211,,,,wave hand
1761153361.4237027,-1.573818325996399,5.190608501434326,12.07950496673584,-5.592524528503418,0.6154161691665649,8.036232948303223,2.0109622478485107,-2.082378625869751,3.0939347743988037,-0.27445611357688904,0.1228003278374672,0.9079408645629883,0.29195436835289,-53.03125,-8.68125057220459,-86.55000305175781,,,,wave hand
1761153361.4384255,-3.3510961532592773,9.509932518005371,11.051436424255371,-5.510213375091553,1.5024497509002686,7.975982666015625,3.4562695026397705,-0.7836790084838867,2.469630479812622,-0.25723516941070557,0.1652483195066452,0.9082235097885132,0.28575003147125244,-53.47500228881836,-8.987500190734863,-86.05000305175781,,,,wave hand
1761153361.4685802,-3.3498992919921875,9.196365356445312,10.20408821105957,-5.633029937744141,2.114506244659424,7.748157501220703,4.113560199737549,0.3513086140155792,0.8386202454566956,-0.2530147135257721,0.20266319811344147,0.8990851044654846,0.29420608282089233,-52.97500228881836,-9.487500190734863,-84.73125457763672,,,,wave hand
1761153361.4837127,-3.586869716644287,12.721000671386719,10.822843551635742,-5.953818321228027,2.0714426040649414,7.516467094421387,2.6108319759368896,1.2260676622390747,-1.123478889465332,-0.2670028805732727,0.21355833113193512,0.8859957456588745,0.31323134899139404,-51.63125228881836,-9.425000190734863,-82.4625015258789,,,,wave hand
1761153361.4982533,-3.8453829288482666,9.719375610351562,9.908473014831543,-6.393752098083496,1.3499219417572021,7.316676139831543,-0.4581550657749176,1.739194393157959,-3.174764394760132,-0.2977902293205261,0.1959635466337204,0.8697354793548584,0.3412908911705017,-48.95000076293945,-8.568750381469727,-80.5562515258789,,,,wave hand
1761153361.5283196,-2.885533094406128,3.0877957344055176,7.276666164398193,-6.839576244354248,0.26331138610839844,7.027585983276367,-2.1795732975006104,2.230329990386963,-4.777674674987793,-0.3381704092025757,0.16569839417934418,0.846952497959137,0.3753081262111664,-47.94375228881836,-7.893750190734863,-77.64375305175781,,,,wave hand
1761153361.5433135,-2.1123874187469482,-1.2853847742080688,4.348047256469727,-7.238107204437256,-0.91196608543396,6.558523178100586,-2.5937399864196777,2.7764437198638916,-5.389761924743652,-0.38440725207328796,0.13399119675159454,0.818146824836731,0.40609514713287354,-46.67499923706055,-6.331250190734863,-75.2874984741211,,,,wave hand
1761153361.5742576,-2.5312743186950684,-4.210412979125977,2.644972324371338,-7.558656692504883,-1.9924588203430176,5.927303314208984,-2.7293519973754883,3.3909740447998047,-4.875413417816162,-0.43197667598724365,0.10625904053449631,0.7864241600036621,0.42853495478630066,-46.35000228881836,-5.631249904632568,-71.0687484741211,,,,wave hand
1761153361.6022487,-4.191263675689697,-7.292224407196045,1.6935003995895386,-7.777985572814941,-2.8694353103637695,5.244558811187744,-2.5961835384368896,3.5375816822052,-4.028754234313965,-0.4748929440975189,0.08467552810907364,0.7558391094207764,0.4427346885204315,-45.81875228881836,-4.481250286102295,-67.01875305175781,,,,wave hand
1761153361.6053085,-7.282649993896484,-9.750493049621582,0.6379050612449646,-7.909219741821289,-3.4694623947143555,4.652223587036133,-2.153917074203491,3.1502931118011475,-2.971957206726074,-0.507948100566864,0.06980215758085251,0.7319620847702026,0.44871804118156433,-46.5625,-3.7562501430511475,-61.712501525878906,,,,wave hand
1761153361.6472356,-9.345968246459961,-10.94491958618164,-0.9718179106712341,-7.993706226348877,-3.7414391040802,4.282336235046387,-1.6676682233810425,2.1313698291778564,-1.4790024757385254,-0.5272877812385559,0.060858793556690216,0.7213325500488281,0.444908082485199,-46.86249923706055,-3.893749952316284,-59.51874923706055,,,,wave hand
1761153361.6503122,-9.314850807189941,-10.86712646484375,-0.8581199645996094,-8.05406665802002,-3.6983675956726074,4.20596981048584,-1.2388408184051514,0.6384152770042419,0.20209865272045135,-0.5313493609428406,0.057413727045059204,0.7257608771324158,0.4331773817539215,-46.92499923706055,-3.575000047683716,-58.64374923706055,,,,wave hand
