timestamp,accel_x,accel_y,accel_z,gravity_x,gravity_y,gravity_z,gyro_x,gyro_y,gyro_z,orient_x,orient_y,orient_z,orient_w,mag_x,mag_y,mag_z,mag_cal_x,mag_cal_y,mag_cal_z,label
1762365089.027606,-3.7639989852905273,-7.937310695648193,4.893797397613525,-3.642354965209961,-7.747570991516113,4.790041923522949,0.09529497474431992,0.1474384367465973,0.004514285828918219,0.05766168609261513,0.5025279521942139,-0.8174163103103638,0.2756292223930359,-91.45625305175781,1.03125,-96.5374984741211,,,,backward 2.0
1762365089.042606,-3.787935495376587,-8.322686195373535,4.958425521850586,-3.6408491134643555,-7.755860805511475,4.777757167816162,0.0757472887635231,0.10712132602930069,-0.02602897584438324,0.05807724595069885,0.5031027793884277,-0.8174178600311279,0.27448639273643494,-90.98125457763672,0.4375,-96.55000305175781,,,,backward 2.0
1762365089.0576067,-3.8118717670440674,-8.358591079711914,4.960819244384766,-3.6281511783599854,-7.767385959625244,4.768683433532715,0.07452555745840073,0.05703037604689598,-0.018698593601584435,0.05772857740521431,0.5036022663116455,-0.8174692392349243,0.2734890580177307,-91.26875305175781,0.7562500238418579,-97.57500457763672,,,,backward 2.0
1762365089.0876062,-3.711338996887207,-8.293963432312012,4.915339946746826,-3.6029539108276367,-7.788961887359619,4.752567768096924,0.024434607475996017,-0.0052778772078454494,-0.05901569873094559,0.056544896215200424,0.5045511722564697,-0.8173433542251587,0.27236124873161316,-91.32500457763672,-0.36250001192092896,-96.6312484741211,,,,backward 2.0
1762365089.1026058,-3.731684923171997,-8.390905380249023,4.970393657684326,-3.5655994415283203,-7.814881801605225,4.738168716430664,-0.032986726611852646,-0.022382104769349098,-0.0785633847117424,0.05468327924609184,0.5054827928543091,-0.8173116445541382,0.27110639214515686,-91.6937484741211,0.699999988079071,-96.5062484741211,,,,backward 2.0
1762365089.1319153,-3.4683845043182373,-8.212578773498535,4.804035663604736,-3.5209593772888184,-7.844263076782227,4.72297477722168,-0.06108652800321579,-0.04315152391791344,-0.10055453330278397,0.052396342158317566,0.5064900517463684,-0.8172804117202759,0.26976868510246277,-91.58125305175781,0.8500000238418579,-96.2874984741211,,,,backward 2.0
1762365089.1609175,-3.359473943710327,-7.997151851654053,4.7824931144714355,-3.470554828643799,-7.872276782989502,4.7136640548706055,-0.1014036312699318,-0.05170363560318947,-0.11521530151367188,0.04977088049054146,0.5072227716445923,-0.8173971176147461,0.26853296160697937,-91.39375305175781,1.024999976158142,-96.7249984741211,,,,backward 2.0
1762365089.163918,-3.2350046634674072,-7.952869415283203,4.784886360168457,-3.420844078063965,-7.894975662231445,4.712037086486816,-0.11239920556545258,-0.05903401970863342,-0.10421972721815109,0.047257211059331894,0.5075448751449585,-0.817721426486969,0.26738858222961426,-91.625,1.0750000476837158,-97.0250015258789,,,,backward 2.0
1762365089.205992,-3.182344436645508,-7.9145708084106445,4.833956241607666,-3.3751893043518066,-7.910277366638184,4.719291687011719,-0.07330383360385895,-0.07125132530927658,-0.12498914450407028,0.045015063136816025,0.5073843598365784,-0.8182526230812073,0.26645341515541077,-91.7437515258789,-0.20000000298023224,-97.01875305175781,,,,backward 2.0
1762365089.2089252,-3.072237014770508,-7.784117698669434,4.850711822509766,-3.3404836654663086,-7.91960334777832,4.728337287902832,-0.06108652800321579,-0.049260176718235016,-0.0883372351527214,0.043388258665800095,0.5070716738700867,-0.8187760710716248,0.26570963859558105,-91.8375015258789,1.15625,-96.3812484741211,,,,backward 2.0
1762365089.2370434,-3.037529230117798,-7.742228984832764,4.854301929473877,-3.3107597827911377,-7.92408561706543,4.741714000701904,-0.028099803254008293,-0.019938644021749496,-0.08222857862710953,0.04219633340835571,0.5064996480941772,-0.8194581270217896,0.26488861441612244,-92.4375,0.9750000238418579,-96.54375457763672,,,,backward 2.0
1762365089.2529635,-3.056678533554077,-7.608185291290283,4.759753227233887,-3.295867443084717,-7.922273635864258,4.755096912384033,-0.02321288175880909,0.004495966713875532,-0.05535050854086876,0.04162206873297691,0.505873441696167,-0.8199658989906311,0.2646045386791229,-92.07500457763672,1.2000000476837158,-96.13750457763672,,,,backward 2.0
1762365089.267576,-3.043513298034668,-7.471747398376465,4.703502655029297,-3.300873041152954,-7.913663864135742,4.76594877243042,-0.02565634250640869,0.015491541475057602,-0.005259558092802763,0.042020492255687714,0.5052934885025024,-0.8202586770057678,0.26474225521087646,-92.4375,1.0500000715255737,-96.5,,,,backward 2.0
1762365089.2976198,-3.2936487197875977,-7.603397846221924,4.680763244628906,-3.332284688949585,-7.9006218910217285,4.765727519989014,0.0012217286275699735,0.03992615267634392,0.020396782085299492,0.043505940586328506,0.5051789283752441,-0.8199797868728638,0.2655835747718811,-92.28125,0.30000001192092896,-96.0687484741211,,,,backward 2.0
1762365089.3125772,-3.4815495014190674,-7.608185291290283,4.680763244628906,-3.371333599090576,-7.8911309242248535,4.753973007202148,-0.04398230090737343,0.017935002222657204,0.05582696571946144,0.04516036808490753,0.5056264996528625,-0.8192629218101501,0.2666657269001007,-91.88750457763672,1.09375,-96.3812484741211,,,,backward 2.0
1762365089.342578,-3.807084560394287,-7.9839863777160645,4.812413215637207,-3.4078638553619385,-7.885974407196045,4.736453056335449,-0.06475171446800232,0.058252107352018356,0.04971831291913986,0.046960510313510895,0.5063450336456299,-0.8185710310935974,0.267115980386734,-92.20000457763672,1.287500023841858,-96.28125,,,,backward 2.0
1762365089.3577738,-4.630496978759766,-9.300488471984863,5.134357929229736,-3.4164881706237793,-7.8803324699401855,4.739628314971924,0.06719517707824707,0.05458691716194153,-0.005259558092802763,0.04788118600845337,0.5060989260673523,-0.8188380002975464,0.26660001277923584,-91.7249984741211,1.274999976158142,-96.0625,,,,backward 2.0
1762365089.3727736,-6.1181440353393555,-11.80184268951416,6.205512046813965,-3.329315662384033,-7.890932559967041,4.783822059631348,0.22846360504627228,-0.09690766036510468,-0.20806682109832764,0.04453118145465851,0.5041757822036743,-0.8210364580154419,0.26405107975006104,-93.63750457763672,0.543749988079071,-96.2249984741211,,,,backward 2.0
1762365089.4027748,-7.723079681396484,-16.43951988220215,8.241302490234375,-3.04728364944458,-7.97614860534668,4.830240249633789,0.24434609711170197,-0.46709200739860535,-0.7810584306716919,0.031835269182920456,0.5027891397476196,-0.8248051404953003,0.25668269395828247,-95.6312484741211,-0.581250011920929,-95.45625305175781,,,,backward 2.0
1762365089.4177825,-8.405267715454102,-21.622947692871094,9.73493480682373,-2.5396790504455566,-8.200390815734863,4.747603416442871,-0.2724458873271942,-1.0070968866348267,-1.8732855319976807,0.007168279029428959,0.5079083442687988,-0.8263381719589233,0.2431933730840683,-98.2562484741211,0.918749988079071,-93.6624984741211,,,,backward 2.0
1762365089.447782,-6.229448318481445,-20.642751693725586,9.962329864501953,-1.8149622678756714,-8.54222583770752,4.469047546386719,-1.3915510177612305,-1.4884586334228516,-2.7602617740631104,-0.02928297407925129,0.5209245085716248,-0.8232065439224243,0.22385519742965698,-101.41875457763672,1.46875,-93.4124984741211,,,,backward 2.0
1762365089.4627833,-1.1956232786178589,-16.607074737548828,8.757132530212402,-1.0015345811843872,-8.85653305053711,4.098151683807373,-2.459343433380127,-1.5434365272521973,-3.456648111343384,-0.06764382123947144,0.5353018641471863,-0.8181539177894592,0.19874705374240875,-104.73750305175781,2.40625,-91.6812515258789,,,,backward 2.0
1762365089.477774,2.065711498260498,-14.22540283203125,8.326276779174805,-0.17680644989013672,-9.017497062683105,3.8587045669555664,-1.9352210760116577,-1.2147910594940186,-3.8488237857818604,-0.10073727369308472,0.5414609909057617,-0.8174374103546143,0.1687248945236206,-108.65625,2.987499952316284,-91.26875305175781,,,,backward 2.0
1762365089.5077834,3.469581365585327,-10.378823280334473,7.434646129608154,0.5599173307418823,-8.978534698486328,3.912609100341797,-0.6206390857696533,-0.525735080242157,-3.7791850566864014,-0.12450649589300156,0.5339276194572449,-0.8247038722038269,0.1388631910085678,-109.3812484741211,1.149999976158142,-92.5374984741211,,,,backward 2.0
1762365089.5367372,3.744849920272827,-5.683698654174805,5.281567096710205,1.253253698348999,-8.800724029541016,4.148822784423828,0.9370672702789307,-0.022382104769349098,-3.6337990760803223,-0.1441718339920044,0.5174511075019836,-0.8363327383995056,0.10957419127225876,-111.35625457763672,0.9375,-93.8187484741211,,,,backward 2.0
1762365089.539737,3.0399229526519775,-1.7653095722198486,4.547916412353516,2.0835928916931152,-8.502518653869629,4.427408218383789,1.4123204946517944,-0.32537126541137695,-3.7461984157562256,-0.1732071340084076,0.4943090081214905,-0.8478748202323914,0.08225739002227783,-114.26875305175781,-1.7000000476837158,-95.90625,,,,backward 2.0
1762365089.5678122,2.484598398208618,0.8724818229675293,3.422905445098877,3.045100212097168,-8.09740924835205,4.625521183013916,1.9523253440856934,-1.9551597833633423,-4.258103370666504,-0.21388907730579376,0.4674355983734131,-0.8556946516036987,0.05951588228344917,-117.5062484741211,-4.9375,-97.2249984741211,,,,backward 2.0
1762365089.5818908,2.5240933895111084,2.5791473388671875,2.0776796340942383,3.900947093963623,-7.724996566772461,4.6198649406433105,1.4477506875991821,-2.393760919570923,-3.968553304672241,-0.25205883383750916,0.4483293890953064,-0.856742799282074,0.03819642961025238,-123.6187515258789,-9.5625,-96.83125305175781,,,,backward 2.0
1762365089.6121438,2.858006238937378,3.8741064071655273,1.9879181385040283,4.641337871551514,-7.443241119384766,4.392295837402344,0.2076941877603531,-2.0516765117645264,-3.5898168087005615,-0.2854621708393097,0.4411837160587311,-0.8506855368614197,0.014227625913918018,-126.03125,-13.68125057220459,-97.03125,,,,backward 2.0
1762365089.6271408,2.907075881958008,5.7184062004089355,1.8790074586868286,5.194333553314209,-7.269268035888672,4.051265716552734,-1.0995573997497559,-1.7584611177444458,-3.2049717903137207,0.3138730525970459,-0.44158485531806946,0.8405249118804932,0.0021032069344073534,-128.1125030517578,-14.449999809265137,-95.5062484741211,,,,backward 2.0
1762365089.6574242,4.217593669891357,7.504061698913574,1.098680853843689,5.355912685394287,-7.231409072875977,3.906024932861328,-0.32131510972976685,-1.7938913106918335,-1.2880765199661255,0.32641127705574036,-0.4408762454986572,0.8361123204231262,0.00014919905515853316,-129.56875610351562,-15.43125057220459,-94.4375,,,,backward 2.0
1762365089.6728163,3.291255235671997,4.618528366088867,-1.469694972038269,5.108238220214844,-7.462479114532471,3.8017659187316895,-0.45326200127601624,-0.2862758934497833,0.6471444964408875,-0.31597912311553955,0.4542986750602722,-0.8329053521156311,0.006211744621396065,-129.0625,-14.887499809265137,-93.70000457763672,,,,backward 2.0
1762365089.6878238,-1.025674819946289,3.2996327877044678,-2.0202322006225586,4.528002738952637,-7.878772735595703,3.695706367492676,-1.3976596593856812,1.1333749294281006,2.307476282119751,-0.2901332974433899,0.4769260287284851,-0.829419732093811,0.02066826820373535,-126.8125,-11.387499809265137,-92.54375457763672,,,,backward 2.0
1762365089.7178302,-5.885961055755615,3.9411284923553467,-2.3661131858825684,3.8068432807922363,-8.345293998718262,3.4785242080688477,-1.55892813205719,1.3679472208023071,3.4559028148651123,-0.2620115876197815,0.5040388107299805,-0.8218919038772583,0.04229137301445007,-123.2437515258789,-9.737500190734863,-91.6187515258789,,,,backward 2.0
1762365089.7328432,-10.00900650024414,4.163736820220947,-3.3630642890930176,2.986100435256958,-8.836190223693848,3.039912223815918,-2.2198843955993652,0.7326473593711853,3.9177169799804688,-0.2352110594511032,0.5382716059684753,-0.8062869906425476,0.06957612186670303,-120.17500305175781,-4.893750190734863,-89.9312515258789,,,,backward 2.0
1762365089.763695,-11.63309097290039,2.0405781269073486,-4.641268253326416,1.951875925064087,-9.287891387939453,2.4822120666503906,-3.0030136108398438,0.4003366529941559,4.742384910583496,-0.20406225323677063,0.5760592222213745,-0.7845040559768677,0.10520390421152115,-116.20625305175781,-1.7062500715255737,-86.9749984741211,,,,backward 2.0
1762365089.778608,-12.71142578125,-1.8251506090164185,-4.528767108917236,0.7376605272293091,-9.545690536499023,2.138166904449463,-2.4605650901794434,0.13277766108512878,5.736873626708984,-0.16787247359752655,0.6023619174957275,-0.7656310200691223,0.15095742046833038,-111.07500457763672,1.899999976158142,-84.92500305175781,,,,backward 2.0
1762365089.793613,-16.59031867980957,-5.519733905792236,-3.792722702026367,-0.5752469301223755,-9.573366165161133,2.062979221343994,-1.1020009517669678,-0.015051720663905144,6.2952046394348145,-0.12763500213623047,0.6152743697166443,-0.7508466839790344,0.2034112513065338,-104.1812515258789,5.3125,-82.95625305175781,,,,backward 2.0
1762365089.8234594,-21.407520294189453,-12.51873779296875,-2.796968460083008,-1.9489991664886475,-9.370386123657227,2.1525321006774902,0.3188716471195221,-0.2422935962677002,6.538329124450684,-0.08216527104377747,0.6193042397499084,-0.736924946308136,0.2581719756126404,-99.3499984741211,5.337500095367432,-81.5625,,,,backward 2.0
1762365089.851312,-22.9885196685791,-22.33745002746582,0.8425613045692444,-3.2165403366088867,-8.959257125854492,2.3710098266601562,0.8613200187683105,0.07413460314273834,6.816883563995361,-0.032337430864572525,0.6149046421051025,-0.7265869975090027,0.3048242926597595,-94.0687484741211,6.675000190734863,-81.17500305175781,,,,backward 2.0
1762365089.8553193,-20.283706665039062,-27.89069366455078,4.478500843048096,-4.091286659240723,-8.554469108581543,2.5136733055114746,1.7263051271438599,1.025862693786621,5.486419200897217,0.010678318329155445,0.6097278594970703,-0.7208539843559265,0.3293744921684265,-90.0999984741211,5.737500190734863,-81.60625457763672,,,,backward 2.0
1762365089.8829978,-19.338218688964844,-27.5819149017334,4.228365421295166,-4.6120405197143555,-8.385285377502441,2.1568942070007324,0.3225368559360504,1.6990361213684082,3.019745111465454,0.03500835597515106,0.6235711574554443,-0.7043260335922241,0.3374290466308594,-87.57500457763672,5.0,-81.6500015258789,,,,backward 2.0
1762365089.8981385,-17.346710205078125,-23.485200881958008,3.9064207077026367,-4.841230869293213,-8.369597434997559,1.6578378677368164,-2.3493876457214355,1.16513991355896,1.690502405166626,0.038572151213884354,0.6434398293495178,-0.6835081577301025,0.34251126646995544,-85.5875015258789,4.712500095367432,-78.5,,,,backward 2.0
1762365089.9562473,-11.761150360107422,-27.158241271972656,5.412020206451416,-4.9880690574646,-8.30296516418457,1.5543651580810547,-1.8020524978637695,0.3233676254749298,0.8450648784637451,0.04650791734457016,0.6470034718513489,-0.6788129806518555,0.34414607286453247,-86.08125305175781,3.15625,-76.2874984741211,,,,backward 2.0
1762365089.9593134,-8.176674842834473,-30.034198760986328,4.585017681121826,-4.94332218170166,-8.32264232635498,1.5916414260864258,1.1129964590072632,0.7912904024124146,0.4467807114124298,0.050518494099378586,0.645232081413269,-0.6838062405586243,0.33694595098495483,-86.79375457763672,4.8125,-75.04375457763672,,,,backward 2.0
1762365089.9619358,-6.796741008758545,-25.471921920776367,2.7706384658813477,-4.721108436584473,-8.509580612182617,1.238668441772461,-0.8246681094169617,0.3746803104877472,-0.8299276232719421,0.03545122966170311,0.6600077748298645,-0.6747794151306152,0.3283378779888153,-87.3062515258789,5.193749904632568,-74.34375,,,,backward 2.0
1762365089.9875395,-1.7689000368118286,-22.698888778686523,5.216938495635986,-4.434699535369873,-8.696915626525879,0.966038703918457,-2.5778512954711914,-0.22274591028690338,-1.4407929182052612,0.017497511580586433,0.6711604595184326,-0.668775200843811,0.319338858127594,-89.0562515258789,6.28125,-73.21875,,,,backward 2.0
1762365090.0025346,5.956573486328125,-23.5079402923584,6.4975361824035645,-4.141288757324219,-8.828006744384766,1.0733814239501953,-0.11484266817569733,0.17309477925300598,-1.4395711421966553,0.013276024721562862,0.6671695709228516,-0.6804413199424744,0.3028334975242615,-91.79375457763672,8.043749809265137,-71.71875,,,,backward 2.0
1762365090.0325341,6.735703468322754,-18.111478805541992,5.157097816467285,-3.842186450958252,-8.938251495361328,1.257528305053711,1.5418238639831543,1.0857274532318115,-1.7425602674484253,0.014374295249581337,0.6600751280784607,-0.6963070034980774,0.2815151512622833,-91.42500305175781,7.46875,-73.0562515258789,,,,backward 2.0
1762365090.0478847,6.136096477508545,-10.899439811706543,4.7968549728393555,-3.2925777435302734,-9.105237007141113,1.5778818130493164,1.4575244188308716,0.9354546070098877,-1.924598217010498,-0.0016404049238190055,0.6477462649345398,-0.715791642665863,0.2608916759490967,-92.66875457763672,9.324999809265137,-75.9937515258789,,,,backward 2.0
1762365090.077906,7.796085834503174,-9.424958229064941,5.531702518463135,-2.3295912742614746,-9.301393508911133,2.0720062255859375,2.0561723709106445,-1.3870550394058228,-3.708324670791626,-0.04110204055905342,0.6266608238220215,-0.7408984303474426,0.2380681186914444,-97.11250305175781,8.637499809265137,-77.625,,,,backward 2.0
1762365090.0922077,7.7984795570373535,-6.598069190979004,4.054826259613037,-1.158541202545166,-9.458317756652832,2.3311233520507812,1.3646728992462158,-1.7657915353775024,-5.288022041320801,-0.08357052505016327,0.6117208003997803,-0.7606796622276306,0.20044992864131927,-101.9000015258789,8.018750190734863,-79.66875457763672,,,,backward 2.0
1762365090.1075845,6.049925327301025,-3.663466215133667,3.890861988067627,-0.009811043739318848,-9.460294723510742,2.595926284790039,1.156978726387024,-0.05170363560318947,-5.73273229598999,-0.11446339637041092,0.5954728722572327,-0.7807275056838989,0.1509132981300354,-108.39375305175781,6.400000095367432,-83.10625457763672,,,,backward 2.0
1762365090.1379788,2.273958206176758,-1.7736873626708984,3.043513298034668,1.1794049739837646,-9.279566764831543,2.95546293258667,1.4660766124725342,0.8694811463356018,-6.011286735534668,-0.14545150101184845,0.5728949904441833,-0.8006029725074768,0.09833655506372452,-112.01875305175781,3.1875,-85.76250457763672,,,,backward 2.0
1762365090.1678379,-0.27287498116493225,0.3351096212863922,2.603083610534668,2.3725695610046387,-8.903942108154297,3.3655385971069336,1.987755537033081,-0.032155949622392654,-6.229976177215576,-0.18523404002189636,0.5423580408096313,-0.8175399303436279,0.056254640221595764,-116.2249984741211,1.1687500476837158,-88.70625305175781,,,,backward 2.0
1762365090.1819103,0.48710575699806213,1.6109198331832886,2.4343318939208984,3.463193893432617,-8.40041732788086,3.698023796081543,2.4740042686462402,-1.5153367519378662,-5.554359436035156,-0.2285284548997879,0.5092076063156128,-0.829354465007782,0.02556452341377735,-120.3375015258789,-2.28125,-90.2249984741211,,,,backward 2.0
1762365090.2129405,2.3637197017669678,2.202148914337158,3.3546864986419678,4.386305332183838,-7.872644901275635,3.875293254852295,2.052507162094116,-1.8073303699493408,-4.981368064880371,0.26631030440330505,-0.4812081754207611,0.8351717591285706,0.0023858824279159307,-125.0625,-8.05625057220459,-92.76250457763672,,,,backward 2.0
1762365090.2149112,2.197361707687378,3.5006985664367676,3.021970748901367,4.965231418609619,-7.463076591491699,3.9856081008911133,1.5344934463500977,-1.4322590827941895,-3.901358127593994,0.2949502766132355,-0.45810946822166443,0.8384398221969604,0.012599218636751175,-127.5062484741211,-11.362500190734863,-94.2750015258789,,,,backward 2.0
1762365090.242299,2.0776796340942383,2.9286186695098877,0.5912290811538696,5.239740371704102,-7.260641574859619,4.008030891418457,1.82404363155365,-2.10421085357666,-1.3296153545379639,0.3181030750274658,-0.44105273485183716,0.8392156362533569,0.00023602556029800326,-129.13125610351562,-14.199999809265137,-93.9375,,,,backward 2.0
1762365090.257739,2.5312743186950684,2.8663840293884277,-2.8699746131896973,5.18922758102417,-7.264498710632324,4.066335201263428,1.7702875137329102,-2.241044759750366,0.5542929768562317,-0.326570063829422,0.43139010667800903,-0.8406616449356079,0.02329287864267826,-129.60000610351562,-13.5625,-93.0374984741211,,,,backward 2.0
1762365090.2879758,1.2997466325759888,4.817200660705566,-3.366654872894287,4.631362438201904,-7.583268165588379,4.156998634338379,1.1007791757583618,-0.5171829462051392,2.2476115226745605,-0.3061223328113556,0.4409235417842865,-0.8422790169715881,0.049412839114665985,-128.46250915527344,-12.800000190734863,-92.76250457763672,,,,backward 2.0
1762365090.3029888,-2.374490976333618,4.966803073883057,-3.2254300117492676,3.4559855461120605,-8.221747398376465,4.085970878601074,-1.0067058801651,2.0154643058776855,4.399078845977783,-0.2533179521560669,0.4770478308200836,-0.83815598487854,0.0758286640048027,-122.11250305175781,-7.693749904632568,-93.2125015258789,,,,backward 2.0
1762365090.317329,-10.956887245178223,4.478500843048096,-0.5648990869522095,2.1384692192077637,-8.885513305664062,3.5652103424072266,-3.2229249477386475,3.92014217376709,6.16081428527832,-0.19442814588546753,0.5296080112457275,-0.8201424479484558,0.09528636187314987,-114.8125,-3.1312501430511475,-92.6187515258789,,,,backward 2.0
1762365090.3479943,-30.989261627197266,3.1380622386932373,-5.976919174194336,1.2525156736373901,-9.354708671569824,2.675208568572998,-4.869817733764648,2.2854669094085693,4.303783893585205,-0.17282919585704803,0.5777360796928406,-0.7878329753875732,0.1251814216375351,-110.59375,-0.737500011920929,-88.73750305175781,,,,backward 2.0
1762365090.3775318,-15.438979148864746,-4.391132831573486,-4.705896377563477,0.06130862236022949,-9.602636337280273,2.0054264068603516,-4.1917572021484375,-0.8788151741027832,5.540174961090088,-0.14209036529064178,0.6144891977310181,-0.7571749091148376,0.1699988692998886,-107.5625,4.012500286102295,-82.92500305175781,,,,backward 2.0
1762365090.3805392,-17.109739303588867,-13.33975601196289,-0.35904601216316223,-1.1729629039764404,-9.542789459228516,1.9481911659240723,-1.9950858354568481,0.31115031242370605,5.866377353668213,-0.09917420148849487,0.6251946091651917,-0.7440745830535889,0.21365675330162048,-104.28125,5.506249904632568,-79.8375015258789,,,,backward 2.0
1762365090.4083316,-22.083723068237305,-18.129430770874023,0.46556299924850464,-2.5924463272094727,-9.196832656860352,2.221177577972412,1.6615535020828247,0.728982150554657,6.460138320922852,-0.03989499807357788,0.6206436157226562,-0.738524317741394,0.26036885380744934,-95.45000457763672,6.450000286102295,-80.3375015258789,,,,backward 2.0
1762365090.4233227,-18.306560516357422,-15.306131362915039,1.0065256357192993,-3.665956497192383,-8.83873462677002,2.161867141723633,1.215621829032898,1.6917058229446411,6.307421684265137,0.009579247795045376,0.6242766380310059,-0.7260506749153137,0.2881621718406677,-90.5875015258789,5.931250095367432,-80.86250305175781,,,,backward 2.0
1762365090.4518976,-23.817916870117188,-24.123106002807617,2.390049695968628,-4.3544182777404785,-8.580484390258789,1.9106178283691406,-0.7367035150527954,1.7185838222503662,4.078985691070557,0.03734434396028519,0.6334226727485657,-0.7086232304573059,0.30860063433647156,-87.8187484741211,4.356250286102295,-78.8687515258789,,,,backward 2.0
1762365090.4696298,-17.92597007751465,-27.633378982543945,4.523979663848877,-4.730419158935547,-8.415975570678711,1.7408647537231445,-0.6866125464439392,0.2170770764350891,2.6275696754455566,0.051468417048454285,0.6392354369163513,-0.6968846917152405,0.3210621774196625,-86.89375305175781,4.537499904632568,-76.80000305175781,,,,backward 2.0
1762365090.4989426,-11.618728637695312,-23.942384719848633,3.9363410472869873,-4.977804183959961,-8.305129051208496,1.5755691528320312,-0.5497786998748779,0.747308075428009,1.5463382005691528,0.06543043255805969,0.6445266604423523,-0.6896136999130249,0.32363125681877136,-85.5062484741211,4.581250190734863,-76.7125015258789,,,,backward 2.0
1762365090.51441,-11.44399356842041,-24.295446395874023,3.5713109970092773,-5.105391502380371,-8.23812484741211,1.5180282592773438,-0.032986726611852646,0.8694811463356018,1.0833022594451904,0.07329414039850235,0.6459539532661438,-0.6868865489959717,0.32489752769470215,-85.20625305175781,3.924999952316284,-75.4375,,,,backward 2.0
1762365090.5286486,-8.772690773010254,-25.65024757385254,3.731684923171997,-5.052228927612305,-8.294854164123535,1.380763053894043,-0.2480112910270691,0.1669861227273941,0.3918028473854065,0.06798327714204788,0.6519225239753723,-0.6822763681411743,0.3238431215286255,-86.76250457763672,4.075000286102295,-74.10625457763672,,,,backward 2.0
1762365090.5573366,-5.177443504333496,-27.0194091796875,4.557490825653076,-4.8214850425720215,-8.472753524780273,1.0962772369384766,-1.4660766124725342,-0.27528032660484314,-0.7407413125038147,0.050524238497018814,0.6645087003707886,-0.6740884780883789,0.318559467792511,-87.35625457763672,4.337500095367432,-72.11250305175781,,,,backward 2.0
1762365090.572882,-0.7085174918174744,-25.917139053344727,5.727980613708496,-4.489575386047363,-8.6769437789917,0.8890905380249023,-1.909564733505249,-0.311932235956192,-1.465227484703064,0.03213056921958923,0.673537015914917,-0.671287477016449,0.3077152669429779,-89.23750305175781,6.262500286102295,-70.8187484741211,,,,backward 2.0
1762365090.603705,2.995640516281128,-25.518596649169922,5.170262813568115,-4.0376296043396,-8.90120792388916,0.8379583358764648,-0.66584312915802,0.047256533056497574,-2.050436496734619,0.015399745665490627,0.6760572791099548,-0.6776500344276428,0.2889634966850281,-91.48125457763672,7.181250095367432,-69.51250457763672,,,,backward 2.0
1762365090.6192966,4.271450996398926,-21.411109924316406,4.721455097198486,-3.402536153793335,-9.154866218566895,0.9204864501953125,0.2125810980796814,0.19386419653892517,-2.7272751331329346,-0.008576052263379097,0.6730607151985168,-0.6898689866065979,0.2664516866207123,-95.33125305175781,8.387499809265137,-70.3187484741211,,,,backward 2.0
1762365090.633524,5.830907344818115,-14.47793197631836,4.5275702476501465,-2.547344207763672,-9.408980369567871,1.1037406921386719,0.4434881806373596,-0.6161431074142456,-3.7877371311187744,-0.04370863735675812,0.6647056937217712,-0.7055684328079224,0.2417212575674057,-97.29375457763672,9.52500057220459,-71.3375015258789,,,,backward 2.0
1762365090.6623163,7.542359828948975,-9.862994194030762,4.502437114715576,-1.458716630935669,-9.596759796142578,1.4179115295410156,0.9248499870300293,-1.049857497215271,-4.6172919273376465,-0.08571191132068634,0.6483708620071411,-0.726544976234436,0.21071583032608032,-101.39375305175781,8.800000190734863,-73.96875,,,,backward 2.0
1762365090.6774993,7.196478843688965,-7.329326152801514,3.2888615131378174,-0.07587778568267822,-9.624866485595703,1.8953380584716797,1.8289304971694946,-1.0840659141540527,-5.897665500640869,-0.13201004266738892,0.6212656497955322,-0.7542434334754944,0.16649089753627777,-106.11250305175781,8.581250190734863,-76.5875015258789,,,,backward 2.0
1762365090.7089708,4.413872241973877,-3.1081416606903076,1.7689000368118286,1.3499928712844849,-9.39000415802002,2.4982900619506836,2.6450464725494385,-0.1860939860343933,-7.108400821685791,-0.16988028585910797,0.5863504409790039,-0.7843815088272095,0.10990694165229797,-111.5,6.506249904632568,-80.10625457763672,,,,backward 2.0
1762365090.723922,0.29082727432250977,0.4021315276622772,1.432593584060669,2.6209230422973633,-8.914566993713379,3.146007537841797,3.1227431297302246,1.0319713354110718,-7.113287448883057,-0.20040124654769897,0.5472589731216431,-0.810897171497345,0.05284619331359863,-117.46875,0.84375,-87.48750305175781,,,,backward 2.0
1762365090.7528732,-3.2050840854644775,2.540848970413208,1.5319297313690186,3.7074368000030518,-8.304813385009766,3.67710542678833,3.1031954288482666,0.4101105034351349,-6.495091915130615,-0.23560833930969238,0.5070232152938843,-0.8290107846260071,0.01254330761730671,-121.09375,-3.84375,-91.54375457763672,,,,backward 2.0
1762365090.7678976,-2.257202625274658,3.534209728240967,2.1662442684173584,4.668042182922363,-7.646998405456543,3.9961113929748535,3.1007518768310547,-1.4603588581085205,-5.120645046234131,0.27692416310310364,-0.4686551094055176,0.8387670516967773,0.012051044963300228,-124.3375015258789,-8.137499809265137,-93.16875457763672,,,,backward 2.0
1762365090.7831347,1.0172970294952393,3.511470079421997,1.2028042078018188,5.489316463470459,-7.058449745178223,4.035072326660156,2.353052854537964,-2.0822196006774902,-4.513444900512695,0.3147505521774292,-0.44189468026161194,0.8392930030822754,0.03533362224698067,-128.02500915527344,-12.36875057220459,-94.09375,,,,backward 2.0
1762365090.8134394,1.5893770456314087,4.193657398223877,0.5840482115745544,6.090395450592041,-6.678517818450928,3.81321382522583,0.6511823534965515,-1.9649336338043213,-3.59959077835083,0.3466411232948303,-0.4306814670562744,0.8316946625709534,0.05135611072182655,-130.40625,-16.662500381469727,-94.5062484741211,,,,backward 2.0
1762365090.8432493,2.780212879180908,5.902716636657715,0.1220756471157074,6.475231170654297,-6.475404739379883,3.5180420875549316,-0.19792033731937408,-2.2471532821655273,-2.1579487323760986,0.37315770983695984,-0.4259628653526306,0.8224092125892639,0.054332997649908066,-133.96875,-19.78125,-92.5062484741211,,,,backward 2.0
1762365090.8460636,5.025447368621826,7.733851432800293,-0.09933606535196304,6.437925338745117,-6.542590141296387,3.4617552757263184,0.6194173693656921,-2.093215227127075,-0.36811351776123047,0.38077157735824585,-0.4225788414478302,0.8216663002967834,0.03612002730369568,-134.0437469482422,-19.700000762939453,-91.3125,,,,backward 2.0
1762365090.8861403,3.084205389022827,3.9495062828063965,-2.5037474632263184,5.778904438018799,-7.076124668121338,3.573352336883545,0.475253164768219,-0.11401189118623734,2.7839510440826416,0.3519548177719116,-0.44045403599739075,0.8258636593818665,0.008797260001301765,-132.4875030517578,-16.875,-91.76875305175781,,,,backward 2.0
1762365090.9011734,-1.7700968980789185,2.354145050048828,-3.7077486515045166,4.539592266082764,-7.834272861480713,3.7752323150634766,-0.856433093547821,2.7753806114196777,5.1370038986206055,-0.2905002534389496,0.47243204712867737,-0.831832230091095,0.021742254495620728,-128.0812530517578,-12.34375,-90.91875457763672,,,,backward 2.0
1762365090.905095,-7.549540996551514,2.4953699111938477,-3.292451858520508,3.122610569000244,-8.56804084777832,3.6158084869384766,-1.7641788721084595,4.512681484222412,6.9292826652526855,-0.2253362238407135,0.5147150754928589,-0.8255698084831238,0.05221591889858246,-120.9937515258789,-7.212500095367432,-91.8375015258789,,,,backward 2.0
1762365090.9323947,-32.38116455078125,1.146553635597229,-3.8525638580322266,2.3050296306610107,-9.06474494934082,2.9586033821105957,-3.5308010578155518,1.6807101964950562,4.787589073181152,-0.20751570165157318,0.5533009767532349,-0.8018601536750793,0.08840560913085938,-114.78125,-1.125,-88.4625015258789,,,,backward 2.0
1762365090.948784,-15.685523986816406,-4.812413215637207,-3.6814184188842773,1.2369191646575928,-9.480607986450195,2.196415901184082,-3.352428436279297,-1.6436184644699097,5.193203449249268,-0.18391549587249756,0.5951699614524841,-0.7709983587265015,0.13232313096523285,-112.34375,3.0250000953674316,-82.84375,,,,backward 2.0
1762365090.978531,-13.69880199432373,-11.409285545349121,-1.2063946723937988,-0.010331869125366211,-9.666526794433594,1.6716060638427734,-3.5112533569335938,0.2073032259941101,5.895698547363281,-0.14288359880447388,0.6280009746551514,-0.74573814868927,0.17050985991954803,-108.57500457763672,5.150000095367432,-78.95000457763672,,,,backward 2.0
1762365090.9942174,-22.22494888305664,-15.685523986816406,-0.6199527978897095,-1.3543827533721924,-9.559794425964355,1.7355384826660156,-1.2486085891723633,0.9464501738548279,6.389277935028076,-0.09620251506567001,0.6342613697052002,-0.7347998023033142,0.2202882170677185,-103.03125,6.375,-77.92500305175781,,,,backward 2.0
1762365091.0232644,-18.824783325195312,-18.081558227539062,1.157325029373169,-2.513550043106079,-9.23381233215332,2.1575160026550293,1.4844025373458862,-0.2667281925678253,6.215792179107666,-0.05103747174143791,0.6224387884140015,-0.7342972159385681,0.2660314440727234,-98.1500015258789,6.84375,-78.3062515258789,,,,backward 2.0
1762365091.0379922,-15.875818252563477,-21.39914321899414,3.430086374282837,-3.4250853061676025,-8.836917877197266,2.532543182373047,2.8063149452209473,0.8022859692573547,4.998948574066162,-0.002685725223273039,0.6090263724327087,-0.7382684946060181,0.28989532589912415,-92.3375015258789,6.037499904632568,-80.32500457763672,,,,backward 2.0
1762365091.052633,-17.23540496826172,-21.61935806274414,1.9029438495635986,-4.098971843719482,-8.575262069702148,2.4288697242736816,1.7189748287200928,2.1962804794311523,3.547532796859741,0.03282046690583229,0.6124762892723083,-0.7297899723052979,0.30199694633483887,-88.6500015258789,4.981250286102295,-81.1875,,,,backward 2.0
1762365091.082784,-16.729150772094727,-20.021602630615234,1.6348562240600586,-4.500473976135254,-8.48085880279541,2.0141701698303223,-1.1924089193344116,1.1517008543014526,2.394219160079956,0.04525432735681534,0.6287233233451843,-0.7100949883460999,0.31372636556625366,-87.01250457763672,5.137500286102295,-79.20000457763672,,,,backward 2.0
1762365091.0978,-12.916082382202148,-24.185338973999023,4.6723856925964355,-4.793257236480713,-8.383587837219238,1.7251787185668945,-2.070833206176758,0.3734585642814636,1.8090102672576904,0.05455636605620384,0.6396045684814453,-0.6955854296684265,0.3226306736469269,-86.61250305175781,4.5,-76.6624984741211,,,,backward 2.0
1762365091.1278522,-7.658451557159424,-28.254528045654297,6.438891887664795,-4.910754203796387,-8.332470893859863,1.6402883529663086,-0.4960225820541382,0.8743680715560913,1.188371181488037,0.065459705889225,0.6419596076011658,-0.6940962076187134,0.31911343336105347,-86.1624984741211,4.150000095367432,-75.7125015258789,,,,backward 2.0
1762365091.1425204,-7.300602436065674,-26.55145263671875,6.193543910980225,-4.842130661010742,-8.381919860839844,1.5916357040405273,0.44104471802711487,0.9537805318832397,-0.018698593601584435,0.06642258167266846,0.6437894701957703,-0.695736825466156,0.31156614422798157,-86.8187484741211,4.525000095367432,-74.7562484741211,,,,backward 2.0
1762365091.1578465,-4.298977851867676,-23.742515563964844,5.7399492263793945,-4.680487155914307,-8.502066612243652,1.4296846389770508,-0.6145304441452026,0.20852495729923248,-0.6662157773971558,0.05666244775056839,0.6510918736457825,-0.6921976208686829,0.3061554431915283,-87.5562515258789,4.881249904632568,-74.20000457763672,,,,backward 2.0
1762365091.1886938,0.5445531010627747,-23.531875610351562,6.6076436042785645,-4.485963821411133,-8.622282028198242,1.3298454284667969,-1.0140362977981567,-0.22641108930110931,-0.8140451312065125,0.0466434508562088,0.655777633190155,-0.691442608833313,0.2994782328605652,-88.67500305175781,6.15625,-73.7125015258789,,,,backward 2.0
1762365091.21727,3.877696990966797,-26.036819458007812,7.028923988342285,-4.118004322052002,-8.792222023010254,1.4053421020507812,-0.11362093687057495,0.18164688348770142,-1.2514246702194214,0.03467776998877525,0.653581976890564,-0.7007115483283997,0.2839566767215729,-89.7437515258789,6.450000286102295,-72.4312515258789,,,,backward 2.0
1762365091.2346077,3.930356979370117,-21.940105438232422,7.1162919998168945,-3.3928346633911133,-9.049148559570312,1.6845417022705078,0.8051204085350037,-0.2911628186702728,-2.879991292953491,0.0065445746295154095,0.6435050964355469,-0.7193904519081116,0.2614108920097351,-92.11250305175781,7.6875,-74.0875015258789,,,,backward 2.0
1762365091.2618282,5.526915073394775,-14.64309310913086,6.2557783126831055,-2.4442317485809326,-9.285601615905762,2.009833812713623,1.4062117338180542,-1.1317133903503418,-4.254438400268555,-0.029799915850162506,0.6298205852508545,-0.740423321723938,0.23283319175243378,-97.04375457763672,8.36875057220459,-77.39375305175781,,,,backward 2.0
1762365091.2648363,5.653778076171875,-9.710997581481934,5.506568908691406,-1.2840311527252197,-9.446210861206055,2.3144025802612305,1.302364706993103,-0.9777753353118896,-5.033902168273926,-0.07019205391407013,0.6140941977500916,-0.761878490447998,0.19365568459033966,-100.26875305175781,8.55625057220459,-79.8187484741211,,,,backward 2.0
1762365091.2923923,5.051777362823486,-6.782379150390625,4.820791244506836,0.08523190021514893,-9.411806106567383,2.765275478363037,1.5821410417556763,-0.4988569915294647,-6.259297847747803,-0.11179648339748383,0.588693380355835,-0.7878514528274536,0.1422385573387146,-104.59375,7.381249904632568,-83.75,,,,backward 2.0
1762365091.308421,1.7545381784439087,-2.6533501148223877,3.7292912006378174,1.4730980396270752,-9.08464527130127,3.396366596221924,2.8429667949676514,-0.11279015988111496,-7.142609119415283,-0.15253208577632904,0.5510232448577881,-0.8155353665351868,0.08949508517980576,-109.4124984741211,4.331250190734863,-87.34375,,,,backward 2.0
1762365091.339066,-1.6731544733047485,1.205197811126709,1.7102558612823486,2.715942144393921,-8.528701782226562,4.015098571777344,3.6187655925750732,-0.7859636545181274,-6.61359977722168,-0.19689159095287323,0.5065476894378662,-0.837795078754425,0.052369374781847,-114.625,0.71875,-91.1875,,,,backward 2.0
1762365091.35367,-1.4577268362045288,2.629413604736328,0.4021315276622772,3.93544602394104,-7.953619480133057,4.181904315948486,3.1874947547912598,-2.46095609664917,-5.6753106117248535,-0.25066474080085754,0.47330984473228455,-0.8441582918167114,0.02327726222574711,-121.39375305175781,-5.743750095367432,-94.2125015258789,,,,backward 2.0
1762365091.3679755,0.7468157410621643,3.464794158935547,0.041888702660799026,5.103226184844971,-7.425440788269043,3.8802075386047363,0.8686503767967224,-3.3137240409851074,-5.4602861404418945,0.30620843172073364,-0.4565834403038025,0.8352710604667664,0.009497098624706268,-125.9937515258789,-10.131250381469727,-94.45000457763672,,,,backward 2.0
1762365091.3981242,2.5659821033477783,4.996723651885986,1.9950990676879883,6.056764125823975,-6.815010070800781,3.6204099655151367,-0.3188716471195221,-3.1768901348114014,-5.3063483238220215,0.35736358165740967,-0.4333183467388153,0.8267971277236938,0.030546562746167183,-129.47500610351562,-14.28125,-93.88750457763672,,,,backward 2.0
1762365091.4133606,5.131964206695557,4.002166271209717,2.1243555545806885,6.627523422241211,-6.326967239379883,3.5045013427734375,2.1514673233032227,-3.3980233669281006,-3.490856647491455,0.39728593826293945,-0.4044070541858673,0.8233594298362732,0.026421723887324333,-132.77500915527344,-17.700000762939453,-91.83125305175781,,,,backward 2.0
1762365091.4432054,6.130112171173096,1.2028042078018188,-0.4081156253814697,6.7462029457092285,-6.208257675170898,3.490326404571533,2.484999895095825,-3.0156219005584717,-0.6381159424781799,0.4156888425350189,-0.3864019215106964,0.823334276676178,0.004120836965739727,-133.94375610351562,-18.86250114440918,-90.01250457763672,,,,backward 2.0
1762365091.4582698,5.634628772735596,-0.5888354778289795,-2.8615968227386475,6.542893886566162,-6.287886142730713,3.7268128395080566,2.0610592365264893,-1.038861870765686,1.2641184329986572,-0.4084000289440155,0.3784967064857483,-0.8304958343505859,0.015042928978800774,-134.0812530517578,-17.856250762939453,-89.42500305175781,,,,backward 2.0
1762365091.4740713,1.7186336517333984,-0.20345941185951233,-3.366654872894287,5.990481853485107,-6.524563789367676,4.216670036315918,1.281595230102539,1.7027013301849365,1.91652250289917,-0.37456145882606506,0.3805086016654968,-0.8450164794921875,0.029395755380392075,-132.90625,-16.149999618530273,-90.875,,,,backward 2.0
1762365091.5027757,-1.463710904121399,0.5230103731155396,-3.2242331504821777,4.9536333084106445,-6.969372272491455,4.808896064758301,0.8038986325263977,4.069193363189697,2.829155206680298,-0.31338903307914734,0.3958353102207184,-0.862037181854248,0.04465051367878914,-130.3000030517578,-14.268750190734863,-93.6812515258789,,,,backward 2.0
1762365091.5169277,-12.566610336303711,2.513322114944458,-0.02872368134558201,3.759167194366455,-7.771695137023926,4.6589202880859375,-1.1129964590072632,5.3764448165893555,5.372797966003418,-0.2570677697658539,0.4432363510131836,-0.8563365936279297,0.06438508629798889,-122.57500457763672,-10.387499809265137,-95.4375,,,,backward 2.0
1762365091.5615382,-29.027673721313477,3.4276926517486572,-6.872140884399414,3.093510389328003,-8.416377067565918,3.978806972503662,-4.500854969024658,0.4809708595275879,4.109528541564941,-0.24444976449012756,0.48728933930397034,-0.8330059051513672,0.09431115537881851,-119.34375,-6.262500286102295,-93.57500457763672,,,,backward 2.0
1762365091.564724,-8.456730842590332,-2.8879268169403076,-2.051349639892578,2.236755132675171,-8.960667610168457,3.307487964630127,-3.7751471996307373,-0.25939780473709106,4.165728569030762,-0.22053705155849457,0.5317763090133667,-0.8086656332015991,0.12098491191864014,-116.63750457763672,0.3187499940395355,-86.8062515258789,,,,backward 2.0
1762365091.5786252,-9.566183090209961,-9.038385391235352,-0.20226259529590607,1.1582980155944824,-9.271350860595703,2.9893970489501953,-3.087312936782837,1.2494393587112427,4.576229572296143,-0.17906410992145538,0.5617573261260986,-0.7940146327018738,0.14800505340099335,-113.2437515258789,2.375,-83.6624984741211,,,,backward 2.0
1762365091.6075082,-17.165990829467773,-11.53016471862793,0.5182231068611145,-0.16931521892547607,-9.306974411010742,3.0963969230651855,-0.6438519954681396,2.2475931644439697,5.703886985778809,-0.12497348338365555,0.5714571475982666,-0.7890511751174927,0.18766096234321594,-107.75,4.849999904632568,-84.8062515258789,,,,backward 2.0
1762365091.6225076,-16.662128448486328,-10.165789604187012,-0.12446928769350052,-1.3631972074508667,-9.205583572387695,3.1040406227111816,0.8234463334083557,1.410707712173462,5.887146472930908,-0.07889699935913086,0.5792816877365112,-0.7791686654090881,0.2260628044605255,-102.07500457763672,5.599999904632568,-84.7750015258789,,,,backward 2.0
1762365091.6537688,-15.893770217895508,-12.472062110900879,0.8317899107933044,-2.4196882247924805,-9.07715129852295,2.8260483741760254,-0.7171558141708374,1.5817500352859497,5.228633880615234,-0.03796721249818802,0.5954152345657349,-0.7607162594795227,0.2556365430355072,-97.7874984741211,6.400000095367432,-83.2874984741211,,,,backward 2.0
1762365091.6677682,-19.6852970123291,-22.753942489624023,3.2900583744049072,-3.2204105854034424,-8.864810943603516,2.6981844902038574,-0.9859365224838257,1.2091221809387207,4.278127670288086,-0.006428750231862068,0.6020269989967346,-0.7475098967552185,0.28062647581100464,-94.0062484741211,5.681250095367432,-80.55000305175781,,,,backward 2.0
1762365091.6827598,-15.605337142944336,-27.01701545715332,4.900978088378906,-3.8162245750427246,-8.62697982788086,2.6921658515930176,0.49357911944389343,0.9317893981933594,3.4253597259521484,0.023265384137630463,0.6018665432929993,-0.7419498562812805,0.29449236392974854,-91.39375305175781,5.087500095367432,-79.53125,,,,backward 2.0
1762365091.7389596,-12.755707740783691,-22.481067657470703,3.7891323566436768,-4.244089603424072,-8.519933700561523,2.373723030090332,0.09162978827953339,1.6440582275390625,2.140099287033081,0.04465578868985176,0.6140203475952148,-0.7289851903915405,0.29927513003349304,-88.73750305175781,4.943749904632568,-79.98750305175781,,,,backward 2.0
1762365091.7425523,-13.548003196716309,-21.45659065246582,3.5282254219055176,-4.458478927612305,-8.544968605041504,1.8280086517333984,-2.1306979656219482,1.126044511795044,1.356969952583313,0.047413408756256104,0.6360670328140259,-0.7074129581451416,0.30452868342399597,-88.14375305175781,4.612500190734863,-76.9437484741211,,,,backward 2.0
1762365091.7465687,-10.743853569030762,-27.12472915649414,6.053515911102295,-4.530514717102051,-8.56187629699707,1.5507469177246094,-2.6169466972351074,0.03992615267634392,0.8389562368392944,0.04428233206272125,0.6473020911216736,-0.6953100562095642,0.30916497111320496,-88.58125305175781,3.856250047683716,-74.2125015258789,,,,backward 2.0
1762365091.7727187,-5.426382064819336,-28.992965698242188,7.025333881378174,-4.465952396392822,-8.605378150939941,1.4962797164916992,-0.5998696684837341,0.14621670544147491,0.1340177208185196,0.04370291531085968,0.6494821906089783,-0.695743203163147,0.3036518096923828,-88.4312515258789,4.03125,-73.51250457763672,,,,backward 2.0
1762365091.787714,-4.076369285583496,-22.976551055908203,5.888354778289795,-4.279587745666504,-8.713797569274902,1.4110193252563477,0.015882493928074837,0.4186626076698303,-0.7309674620628357,0.036474499851465225,0.653262734413147,-0.6963338255882263,0.29501956701278687,-89.4437484741211,5.925000190734863,-73.86250305175781,,,,backward 2.0
1762365091.830713,-0.3303223252296448,-18.762548446655273,5.280370235443115,-4.045338153839111,-8.849223136901855,1.2500429153442383,-0.8246681094169617,-0.1262291967868805,-1.0693868398666382,0.0243570264428854,0.6600712537765503,-0.6938877701759338,0.286761999130249,-90.42500305175781,6.6875,-73.9437484741211,,,,backward 2.0
1762365091.8337166,3.2673187255859375,-20.312429428100586,5.8500566482543945,-3.783053398132324,-8.977039337158203,1.1564569473266602,-0.7428121566772461,0.1926424652338028,-1.2037771940231323,0.016208181157708168,0.6639235615730286,-0.6958287954330444,0.2734321355819702,-91.9000015258789,7.362500190734863,-71.51875305175781,,,,backward 2.0
1762365091.8627222,-0.5648990869522095,-22.378141403198242,16.153480529785156,-3.164173126220703,-9.01579475402832,2.2225136756896973,2.141693592071533,0.13399939239025116,-1.2404290437698364,-0.008399231359362602,0.6218130588531494,-0.7353637218475342,0.26929205656051636,-103.6812515258789,2.856250047683716,-70.0687484741211,,,,backward 2.0
1762365091.877722,7.943294525146484,-12.168069839477539,5.955376625061035,-2.550452470779419,-9.033669471740723,2.850281238555908,5.621181964874268,-1.2025737762451172,-3.992987871170044,-0.02360372431576252,0.5951206684112549,-0.7638128995895386,0.24872486293315887,-100.36250305175781,8.537500381469727,-74.4124984741211,,,,backward 2.0
1762365091.8927212,3.492321014404297,-3.710142135620117,1.9867212772369385,-1.9924516677856445,-9.279626846313477,2.4808812141418457,0.051312677562236786,-0.16776803135871887,-2.033332109451294,-0.05348179489374161,0.6088457703590393,-0.7563393712043762,0.23323221504688263,-101.64375305175781,8.99375057220459,-76.5374984741211,,,,backward 2.0
1762365091.9223037,10.444648742675781,-7.5986104011535645,7.203660011291504,-1.058387279510498,-9.508363723754883,2.169546604156494,-3.791029691696167,-1.0022099018096924,-2.8897652626037598,-0.0923745334148407,0.617161750793457,-0.7552471160888672,0.20044972002506256,-103.375,8.3125,-77.51875305175781,,,,backward 2.0
1762365091.9373796,9.106603622436523,-9.76126480102539,4.012937545776367,0.3930540084838867,-9.451315879821777,2.5988926887512207,0.6499606370925903,-0.392566442489624,-6.738216400146484,-0.13521908223628998,0.5909774899482727,-0.7819414138793945,0.14501409232616425,-109.0562515258789,7.349999904632568,-79.01875305175781,,,,backward 2.0
1762365091.9803925,2.9286186695098877,-5.445531368255615,2.2428407669067383,1.664670705795288,-9.1626558303833,3.083946704864502,2.959031343460083,0.5445008277893066,-6.936136722564697,-0.16793841123580933,0.5609036087989807,-0.8056624531745911,0.08995496481657028,-116.98750305175781,2.799999952316284,-82.70625305175781,,,,backward 2.0
1762365091.9835238,-0.6331177949905396,-2.188983917236328,2.8053462505340576,2.868345260620117,-8.714951515197754,3.47251033782959,1.8655824661254883,0.3392501175403595,-6.512196063995361,-0.20424066483974457,0.5303748250007629,-0.8217801451683044,0.04081256687641144,-120.75,0.824999988079071,-85.45000457763672,,,,backward 2.0
1762365091.997433,-0.5242071747779846,-1.7988204956054688,3.6802215576171875,3.9498026371002197,-8.079809188842773,3.9181437492370605,2.526538610458374,-0.9460103511810303,-5.983186721801758,-0.24596649408340454,0.48969271779060364,-0.836432933807373,0.009024766273796558,-125.9937515258789,-2.90625,-87.3375015258789,,,,backward 2.0
1762365092.0276525,2.120765209197998,-3.616790294647217,2.8975014686584473,4.887905120849609,-7.3296918869018555,4.315103054046631,3.5308010578155518,-2.0431244373321533,-4.919059753417969,0.28769612312316895,-0.44418132305145264,0.8484132289886475,0.011354643851518631,-130.31875610351562,-7.287499904632568,-88.6937484741211,,,,backward 2.0
1762365092.0426526,4.428234100341797,-2.4810080528259277,2.2631866931915283,5.62931489944458,-6.541046619415283,4.664937496185303,3.662748098373413,-2.030906915664673,-4.193351745605469,0.32179319858551025,-0.3983525335788727,0.8585157990455627,0.02674166113138199,-132.88125610351562,-11.956250190734863,-89.23750305175781,,,,backward 2.0
1762365092.0879412,4.364802837371826,-1.1309949159622192,2.333799123764038,6.087031364440918,-5.856657028198242,4.988359451293945,3.606548309326172,-1.3027557134628296,-3.2575061321258545,0.34292659163475037,-0.35798415541648865,0.8677534461021423,0.035394009202718735,-134.6437530517578,-18.137500762939453,-91.1624984741211,,,,backward 2.0
1762365092.1019402,2.229675769805908,0.15917706489562988,0.9897701740264893,6.309565544128418,-5.372570514678955,5.249854564666748,3.1874947547912598,-0.6979990601539612,-1.8879462480545044,0.35455867648124695,-0.3266672194004059,0.8754443526268005,0.03426132723689079,-134.4562530517578,-19.418750762939453,-92.2874984741211,,,,backward 2.0
1762365092.1049397,0.37699830532073975,1.273416519165039,-0.20585304498672485,6.369417667388916,-5.1806182861328125,5.369155406951904,2.2797491550445557,-0.545282781124115,-0.42920005321502686,0.35995054244995117,-0.31109219789505005,0.8791851997375488,0.0262809656560421,-135.0749969482422,-21.024999618530273,-93.0250015258789,,,,backward 2.0
1762365092.1319396,-0.5960164070129395,0.8760722875595093,-1.294959306716919,6.311254024505615,-5.261608600616455,5.359072208404541,0.8319984674453735,-0.30460184812545776,0.35392919182777405,0.3576130270957947,-0.3145943582057953,0.8789759874343872,0.023335622623562813,-134.7687530517578,-22.368749618530273,-94.9749984741211,,,,backward 2.0
1762365092.1479492,-1.3990826606750488,2.7024197578430176,-3.8788938522338867,5.8540239334106445,-5.787048816680908,5.3363447189331055,-1.3768903017044067,1.0099802017211914,0.797417402267456,0.33160296082496643,-0.343590646982193,0.878383994102478,0.020650921389460564,-132.75625610351562,-21.712499618530273,-96.65625,,,,backward 2.0
1762365092.1769397,-4.413872241973877,4.385148525238037,-2.1518824100494385,4.955142974853516,-6.702425003051758,5.173023700714111,-3.330437421798706,2.9109928607940674,3.645271062850952,0.28806304931640625,-0.391610711812973,0.873874306678772,0.002106146886944771,-125.8687515258789,-16.90625,-99.48750305175781,,,,backward 2.0
1762365092.1929603,-12.40384292602539,4.107486248016357,-1.6827290058135986,4.232081890106201,-7.4420976638793945,4.789653301239014,-3.7971384525299072,2.488274097442627,4.474826335906982,-0.2573964595794678,0.43546077609062195,-0.8625030517578125,0.014473849907517433,-122.6624984741211,-11.387499809265137,-97.40625,,,,backward 2.0
1762365092.2075117,-11.953838348388672,-0.4751375615596771,-2.3445703983306885,3.5236220359802246,-8.026773452758789,4.403533458709717,-3.1813862323760986,0.6972171664237976,3.2579824924468994,-0.2333638072013855,0.47021302580833435,-0.8502002358436584,0.04000866785645485,-120.5875015258789,-7.037499904632568,-94.5562515258789,,,,backward 2.0
1762365092.237512,-10.321375846862793,-6.983445167541504,-3.7221102714538574,2.5936954021453857,-8.524438858032227,4.103998184204102,-2.0891592502593994,0.8792549967765808,4.644646644592285,-0.20061369240283966,0.5005795955657959,-0.8390271663665771,0.07216403633356094,-119.40625,-3.700000047683716,-90.60625457763672,,,,backward 2.0
1762365092.2655115,-15.617304801940918,-11.795858383178711,-1.0412334203720093,1.5234320163726807,-8.951142311096191,3.7138028144836426,-2.585181713104248,1.0221974849700928,4.799806594848633,-0.16624249517917633,0.5320496559143066,-0.8227605819702148,0.11113791167736053,-116.1187515258789,-0.7250000238418579,-87.29375457763672,,,,backward 2.0
1762365092.2685168,-13.56475830078125,-10.940132141113281,1.7653095722198486,0.4214686155319214,-9.060598373413086,3.736846446990967,-0.9737191796302795,0.3942279815673828,5.694113254547119,-0.12912389636039734,0.5411708950996399,-0.8163392543792725,0.15508471429347992,-109.45625305175781,2.75,-87.1937484741211,,,,backward 2.0
1762365092.298014,-11.9071626663208,-11.289603233337402,2.0477590560913086,-0.8051152229309082,-8.993254661560059,3.8352651596069336,0.646295428276062,1.3080823421478271,5.268950939178467,-0.07805730402469635,0.5462872385978699,-0.8117607235908508,0.19110696017742157,-104.5250015258789,3.5687501430511475,-86.89375305175781,,,,backward 2.0
1762365092.311949,-16.155874252319336,-14.61197566986084,1.9819340705871582,-2.0781726837158203,-8.82548713684082,3.7454094886779785,0.19425514340400696,2.7766025066375732,5.706330299377441,-0.02376098372042179,0.5554618835449219,-0.8001927733421326,0.22492001950740814,-98.09375,4.831250190734863,-86.82500457763672,,,,backward 2.0
1762365092.3422554,-18.867868423461914,-16.422765731811523,3.339128017425537,-2.9814491271972656,-8.670793533325195,3.4877514839172363,-0.2785545587539673,1.6697145700454712,4.959853172302246,0.009530800394713879,0.5675773620605469,-0.7829115986824036,0.25458717346191406,-93.64375305175781,4.606250286102295,-87.1500015258789,,,,backward 2.0
1762365092.357265,-17.031946182250977,-19.730775833129883,4.764540672302246,-3.701913595199585,-8.578048706054688,2.9914960861206055,-1.9730947017669678,0.8548203706741333,3.793100595474243,0.031957969069480896,0.5886483788490295,-0.7579022645950317,0.2793850898742676,-91.0999984741211,4.568749904632568,-84.04375457763672,,,,backward 2.0
1762365092.3886273,-15.845897674560547,-24.756223678588867,6.110963344573975,-4.262027740478516,-8.419734001159668,2.6794252395629883,-2.2650883197784424,0.6031439304351807,3.2469871044158936,0.04938989505171776,0.6008282899856567,-0.7389747500419617,0.3008027970790863,-87.89375305175781,3.9000000953674316,-81.21875,,,,backward 2.0
1762365092.4026372,-11.24891185760498,-25.744796752929688,7.194085121154785,-4.663616180419922,-8.222325325012207,2.6230058670043945,-0.4605923891067505,0.38201069831848145,2.6165740489959717,0.06804879754781723,0.6013975143432617,-0.7321891784667969,0.3123931288719177,-86.05000305175781,3.356250047683716,-80.07500457763672,,,,backward 2.0
1762365092.417425,-8.173084259033203,-22.678543090820312,5.757901191711426,-4.921308517456055,-8.132345199584961,2.4252429008483887,0.1869247704744339,1.1150490045547485,1.7405933141708374,0.08156522363424301,0.6080595254898071,-0.723971962928772,0.3153972327709198,-84.6812515258789,2.9625000953674316,-79.8375015258789,,,,backward 2.0
1762365092.4479105,-8.825350761413574,-22.12441635131836,6.127718925476074,-5.006763935089111,-8.163578987121582,2.127063274383545,-1.3720033168792725,0.7546384930610657,0.8682777285575867,0.08116190135478973,0.6204834580421448,-0.7121917605400085,0.3181130588054657,-84.64375305175781,2.793750047683716,-79.26250457763672,,,,backward 2.0
1762365092.4619055,-5.510159492492676,-24.220046997070312,7.858320713043213,-5.0045084953308105,-8.200313568115234,1.9864225387573242,-1.3768903017044067,-0.09812939167022705,0.27818191051483154,0.07792209088802338,0.6266445517539978,-0.7066643238067627,0.31917139887809753,-83.96875,3.2562501430511475,-77.96875,,,,backward 2.0
1762365092.4925451,-0.7468157410621643,-22.901151657104492,7.6883721351623535,-4.919355869293213,-8.254796028137207,1.9734210968017578,-0.294437050819397,0.24395513534545898,-0.10421972721815109,0.07685237377882004,0.6273050308227539,-0.7090261578559875,0.31283241510391235,-84.2437515258789,3.9625000953674316,-78.85625457763672,,,,backward 2.0
1762365092.5075192,0.6857779026031494,-20.525463104248047,6.777592182159424,-4.6869425773620605,-8.378450393676758,2.0174875259399414,0.37629300355911255,0.34047186374664307,-0.8519188165664673,0.06975754350423813,0.6263431906700134,-0.7153962850570679,0.3017222285270691,-86.01250457763672,4.293750286102295,-77.0250015258789,,,,backward 2.0
1762365092.522512,1.5415042638778687,-19.614683151245117,5.913487911224365,-4.315784454345703,-8.571819305419922,2.0332303047180176,0.14538592100143433,-0.06392093747854233,-1.609391689300537,0.05421154573559761,0.6272404789924622,-0.7214508056640625,0.28833863139152527,-87.90625,5.03125,-77.04375457763672,,,,backward 2.0
1762365092.5523272,3.586869716644287,-19.977319717407227,6.337162017822266,-3.8238680362701416,-8.790067672729492,2.0853896141052246,-0.19792033731937408,-0.34614068269729614,-2.167722463607788,0.03471983224153519,0.6265026330947876,-0.7301034331321716,0.27062511444091797,-90.6312484741211,5.700000286102295,-77.04375457763672,,,,backward 2.0
1762365092.5796225,4.410282135009766,-19.224519729614258,6.435301303863525,-3.087987184524536,-9.005362510681152,2.3672566413879395,0.7220427393913269,-0.25451090931892395,-2.960625648498535,0.009975225664675236,0.6158288717269897,-0.7492620348930359,0.243437260389328,-91.65625,6.868750095367432,-78.38750457763672,,,,backward 2.0
1762365092.5829349,2.8053462505340576,-16.210927963256836,5.204970359802246,-1.9728572368621826,-9.166271209716797,2.885033130645752,1.9620991945266724,-0.5746042728424072,-4.6282877922058105,-0.026367295533418655,0.5935143232345581,-0.7780967354774475,0.20398779213428497,-97.98125457763672,6.706250190734863,-81.96875,,,,backward 2.0
1762365092.612673,-0.2381671965122223,-10.749837875366211,4.295387268066406,-0.6694860458374023,-9.162670135498047,3.4399666786193848,2.769663095474243,-0.9350147843360901,-6.233641624450684,-0.06765984743833542,0.565767228603363,-0.8066898584365845,0.1567838191986084,-103.23750305175781,5.425000190734863,-85.625,,,,backward 2.0
1762365092.628689,-2.8747618198394775,-5.456302642822266,2.865187168121338,0.6831344366073608,-8.95029354095459,3.957484245300293,2.680476665496826,-0.8055113554000854,-6.638034343719482,-0.11080535501241684,0.5348042249679565,-0.8308135271072388,0.10703042894601822,-108.63750457763672,3.96875,-89.2125015258789,,,,backward 2.0
1762365092.6581957,-2.8615968227386475,-1.8909757137298584,1.225543737411499,2.1071181297302246,-8.590498924255371,4.242579936981201,2.387261390686035,-1.2709906101226807,-6.997223377227783,-0.16015134751796722,0.5080492496490479,-0.8445301651954651,0.05482972785830498,-114.4000015258789,1.243749976158142,-91.7437515258789,,,,backward 2.0
1762365092.6866572,-1.535520076751709,1.1752773523330688,0.8114439845085144,3.4850168228149414,-8.043006896972656,4.404633522033691,1.2791517972946167,-1.511671543121338,-7.2415690422058105,-0.20985692739486694,0.4811059832572937,-0.8511714339256287,0.002075407188385725,-118.88750457763672,-2.9437501430511475,-93.83125305175781,,,,backward 2.0
1762365092.6896627,-0.5541276931762695,2.362522840499878,1.577408790588379,4.68380069732666,-7.317074298858643,4.556155204772949,1.55892813205719,-1.540993094444275,-6.8701629638671875,0.25632333755493164,-0.44953131675720215,0.8545781970024109,0.04377333074808121,-125.7249984741211,-9.731249809265137,-95.41875457763672,,,,backward 2.0
1762365092.7332544,0.7109110951423645,2.8963046073913574,2.1435046195983887,5.622232437133789,-6.558483123779297,4.6489691734313965,1.8887953758239746,-1.7205874919891357,-5.87811803817749,0.2976367771625519,-0.4176862835884094,0.8550174236297607,0.07678381353616714,-128.25625610351562,-15.543749809265137,-96.63750457763672,,,,backward 2.0
1762365092.7361956,2.2081329822540283,2.9525551795959473,2.9286186695098877,6.2733283042907715,-5.878541469573975,4.724851131439209,2.009746551513672,-1.9160643815994263,-4.336294174194336,0.3323475420475006,-0.38565143942832947,0.8558240532875061,0.09156057238578796,-130.53125,-18.075000762939453,-97.0062484741211,,,,backward 2.0
1762365092.7903569,3.379819869995117,1.2315278053283691,2.4534811973571777,6.675948619842529,-5.342686653137207,4.80869197845459,2.9187140464782715,-2.0443460941314697,-2.350982189178467,0.36025288701057434,-0.35373228788375854,0.8587573766708374,0.08733319491147995,-132.5812530517578,-20.931249618530273,-96.61250305175781,,,,backward 2.0
1762365092.793288,2.3254213333129883,0.24893857538700104,0.5924259424209595,7.002038955688477,-4.999501705169678,4.713017463684082,2.8356363773345947,-2.151858329772949,-0.9093401432037354,0.3865751028060913,-0.33218181133270264,0.8568907380104065,0.07715683430433273,-133.5812530517578,-23.17500114440918,-95.5875015258789,,,,backward 2.0
1762365092.7962995,1.3930985927581787,1.174080491065979,-0.9227482676506042,7.305145263671875,-4.896293640136719,4.347101211547852,1.5320500135421753,-2.6210029125213623,-0.4585215747356415,0.41404038667678833,-0.327117383480072,0.8468557596206665,0.066334068775177,-136.1750030517578,-25.399999618530273,-94.07500457763672,,,,backward 2.0
1762365092.8239958,2.025019645690918,2.5456361770629883,-2.9417836666107178,7.441692352294922,-5.066647529602051,3.8969740867614746,-0.24068090319633484,-2.817701578140259,0.2598559558391571,0.43158820271492004,-0.33927732706069946,0.8338784575462341,0.05717753246426582,-137.3874969482422,-26.75,-92.53125,,,,backward 2.0
1762365092.839001,3.3642611503601074,5.958967208862305,-1.5067964792251587,7.144492149353027,-5.521143436431885,3.8352737426757812,-1.3060299158096313,-1.1744740009307861,1.4657039642333984,0.41934752464294434,-0.3587058484554291,0.8329237103462219,0.04142334684729576,-136.1125030517578,-23.48750114440918,-91.7874984741211,,,,backward 2.0
1762365092.868022,-0.34947144985198975,3.671844005584717,-1.1728836297988892,6.329709529876709,-6.256594181060791,4.126246452331543,-0.9639453291893005,1.9494909048080444,3.675814390182495,0.3730259835720062,-0.3879992961883545,0.8425241708755493,0.02147359400987625,-134.2687530517578,-19.700000762939453,-92.7437515258789,,,,backward 2.0
1762365092.882329,-3.395378589630127,1.001738429069519,-1.9484230279922485,5.077042579650879,-7.0390191078186035,4.572960376739502,-1.6493362188339233,4.511459827423096,5.0502610206604,-0.30320367217063904,0.41831934452056885,-0.8561965823173523,0.001991819590330124,-129.81875610351562,-15.27500057220459,-93.86250305175781,,,,backward 2.0
1762365092.9123337,-12.79759693145752,-2.155472993850708,0.8664976954460144,3.9172732830047607,-7.528049468994141,4.9213361740112305,-0.6487389206886292,5.106442451477051,5.560944557189941,-0.24440766870975494,0.43523818254470825,-0.866066038608551,0.02760796807706356,-121.5687484741211,-9.375,-97.3375015258789,,,,backward 2.0
1762365092.92734,-30.463857650756836,-6.9104390144348145,-4.0871405601501465,3.10422682762146,-7.9475250244140625,4.841149806976318,-0.003665193449705839,1.6587190628051758,4.659307479858398,-0.22374431788921356,0.4507691562175751,-0.860772967338562,0.07625982910394669,-119.5999984741211,-5.893750190734863,-95.3062515258789,,,,backward 2.0
1762365092.9431226,-13.829256057739258,-11.785086631774902,3.001624584197998,2.1486759185791016,-8.323105812072754,4.7270708084106445,-0.7159340977668762,-1.2538864612579346,5.326372146606445,-0.19893179833889008,0.46850284934043884,-0.8512490391731262,0.1276959925889969,-117.375,-2.96875,-93.08125305175781,,,,backward 2.0
1762365092.9737692,-7.1031270027160645,-12.65876579284668,4.550309658050537,0.8652017116546631,-8.450098037719727,4.907481670379639,-0.07696902006864548,1.1895745992660522,5.751534461975098,-0.14555896818637848,0.47821134328842163,-0.8499449491500854,0.16649366915225983,-112.9124984741211,-0.11874999850988388,-93.3187484741211,,,,backward 2.0
1762365093.00182,-11.66061782836914,-9.153280258178711,3.050694227218628,-0.5491094589233398,-8.419160842895508,5.005229949951172,1.1496484279632568,3.6489179134368896,5.661126613616943,-0.08204668760299683,0.48801615834236145,-0.8457498550415039,0.19953888654708862,-105.7562484741211,0.4312500059604645,-94.9437484741211,,,,backward 2.0
1762365093.0048215,-18.142595291137695,-9.714588165283203,1.208788275718689,-1.7558599710464478,-8.472496032714844,4.622757434844971,-0.8613200187683105,3.3557026386260986,5.576827049255371,-0.03655219078063965,0.5128834247589111,-0.825336754322052,0.23331080377101898,-97.0625,2.200000047683716,-93.30000305175781,,,,backward 2.0
1762365093.0329177,-20.41057014465332,-19.723594665527344,5.315077781677246,-2.634239435195923,-8.418295860290527,4.292923450469971,-2.1820106506347656,1.1810224056243896,4.896323204040527,-0.009502599015831947,0.5301945805549622,-0.8044663071632385,0.2676517069339752,-94.4625015258789,1.375,-90.1937484741211,,,,backward 2.0
1762365093.0474892,-14.17393970489502,-28.61357307434082,9.045565605163574,-3.39083194732666,-8.242721557617188,4.09827995300293,-0.9199630618095398,0.8438248038291931,4.024007797241211,0.02208608388900757,0.5391005873680115,-0.791100800037384,0.28817063570022583,-92.26875305175781,2.575000047683716,-89.0062484741211,,,,backward 2.0
1762365093.078579,-13.06448745727539,-25.44319725036621,7.494487285614014,-3.919701099395752,-8.137378692626953,3.8282017707824707,-0.09162978827953339,1.879852294921875,2.709425687789917,0.04572230577468872,0.5502655506134033,-0.7785177826881409,0.29837459325790405,-89.17500305175781,1.9562500715255737,-88.29375457763672,,,,backward 2.0
1762365093.1071713,-11.737214088439941,-19.457901000976562,5.702847480773926,-4.233762741088867,-8.25385570526123,3.1914353370666504,-2.101376533508301,1.1040533781051636,1.8945313692092896,0.049499236047267914,0.5786946415901184,-0.7533400058746338,0.30844998359680176,-87.09375,2.418750047683716,-85.53125,,,,backward 2.0
1762365093.111347,-8.606332778930664,-24.31220245361328,7.438236713409424,-4.396330833435059,-8.381013870239258,2.582054615020752,-3.992615222930908,0.19997283816337585,1.1957014799118042,0.04469040781259537,0.6053094863891602,-0.7290565371513367,0.31635403633117676,-86.4749984741211,3.325000047683716,-81.58125305175781,,,,backward 2.0
1762365093.1380632,-4.819594383239746,-27.210901260375977,8.581199645996094,-4.451469898223877,-8.424076080322266,2.335696220397949,-2.355496406555176,0.19630765914916992,0.8010825514793396,0.04296566918492317,0.6157168745994568,-0.7195460200309753,0.3182770013809204,-86.2874984741211,2.6312501430511475,-79.625,,,,backward 2.0
1762365093.1528525,-2.7155847549438477,-25.82617950439453,7.677600860595703,-4.329645156860352,-8.533463478088379,2.161088466644287,-0.7318165898323059,0.06924768537282944,-0.13720645010471344,0.03463435918092728,0.6234205961227417,-0.7151201367378235,0.3142458498477936,-87.8062515258789,4.543750286102295,-78.34375,,,,backward 2.0
1762365093.1822057,-0.39854109287261963,-22.380535125732422,6.051122188568115,-4.059004783630371,-8.729329109191895,1.8866357803344727,-1.4489723443984985,-0.21908071637153625,-0.9105618596076965,0.017116624861955643,0.635254442691803,-0.7086411118507385,0.3065723180770874,-89.4000015258789,5.1875,-76.6312484741211,,,,backward 2.0
1762365093.1975186,1.9137152433395386,-23.457674026489258,6.028382778167725,-3.652254104614258,-8.96545696258545,1.5867319107055664,-1.7763961553573608,-0.3889012634754181,-1.710795283317566,-0.00475696986541152,0.6473825573921204,-0.7036991715431213,0.29271256923675537,-91.4937515258789,5.956250190734863,-73.96875,,,,backward 2.0
1762365093.2287693,4.679566383361816,-21.810848236083984,7.285043716430664,-3.1210782527923584,-9.194239616394043,1.4003324508666992,-1.6969836950302124,0.06069556996226311,-2.374194860458374,-0.023541159927845,0.6542729735374451,-0.7065759301185608,0.268557608127594,-92.79375457763672,8.393750190734863,-74.30000305175781,,,,backward 2.0
1762365093.2436483,5.593936920166016,-17.578893661499023,7.725473403930664,-2.389364004135132,-9.393814086914062,1.511061668395996,0.1319468915462494,0.9159069061279297,-3.184202194213867,-0.04032357409596443,0.6491206288337708,-0.7231492400169373,0.23253308236598969,-94.20625305175781,8.824999809265137,-75.51250457763672,,,,backward 2.0
1762365093.2588801,4.319323539733887,-12.82512378692627,6.727325439453125,-1.2894549369812012,-9.536662101745605,1.9040722846984863,1.4465289115905762,0.9305676817893982,-4.640504837036133,-0.06947938352823257,0.6309715509414673,-0.749788224697113,0.1867220103740692,-97.1875,9.0,-78.4375,,,,backward 2.0
1762365093.2879074,2.3326022624969482,-9.040779113769531,4.395920276641846,0.07650506496429443,-9.463069915771484,2.5846805572509766,2.8148670196533203,0.25006380677223206,-6.419344425201416,-0.10642856359481812,0.5974411368370056,-0.7836012244224548,0.13306450843811035,-102.9000015258789,7.956250190734863,-82.17500305175781,,,,backward 2.0
1762365093.3147492,-0.5266008377075195,-6.1037821769714355,2.2966976165771484,1.4188401699066162,-9.115296363830566,3.336820602416992,3.749490976333618,0.2378464937210083,-7.075413703918457,-0.14280341565608978,0.5563585162162781,-0.8147445321083069,0.07914374023675919,-108.0625,5.681250095367432,-86.45625305175781,,,,backward 2.0
1762365093.318018,-2.8747618198394775,-1.5965579748153687,1.1166330575942993,2.669985294342041,-8.549424171447754,4.001829624176025,3.780034065246582,-0.16532456874847412,-6.815185546875,-0.1827814280986786,0.5124686360359192,-0.838359534740448,0.03346875309944153,-115.53125,-0.11874999850988388,-92.98750305175781,,,,backward 2.0
1762365093.3490689,-2.252415418624878,1.8682360649108887,1.245889663696289,3.899022340774536,-7.769072532653809,4.5470051765441895,3.8814377784729004,-1.5080063343048096,-6.239750385284424,0.23203153908252716,-0.46304190158843994,0.8554258346557617,0.0005207942449487746,-120.01250457763672,-6.025000095367432,-95.625,,,,backward 2.0
1762365093.3638248,0.5050580501556396,3.7628023624420166,2.045365571975708,5.002391338348389,-6.934295177459717,4.809131622314453,3.880216121673584,-2.695528507232666,-5.707075595855713,0.2831237316131592,-0.4180038273334503,0.862821638584137,0.025546666234731674,-124.5999984741211,-9.537500381469727,-96.75,,,,backward 2.0
1762365093.4090254,2.589918613433838,2.884336233139038,2.239250421524048,5.916053295135498,-6.18746280670166,4.790796279907227,2.802649736404419,-3.0596041679382324,-4.679600238800049,0.33090853691101074,-0.3825184106826782,0.8615889549255371,0.042938102036714554,-127.98750305175781,-14.125,-97.14375305175781,,,,backward 2.0
1762365093.411027,3.0327420234680176,1.4864505529403687,1.8778107166290283,6.631106376647949,-5.560014247894287,4.620690822601318,2.2956316471099854,-3.3638150691986084,-3.59348201751709,0.37529727816581726,-0.35162872076034546,0.8563175201416016,0.047218095511198044,-132.59375,-19.850000381469727,-95.1937484741211,,,,backward 2.0
1762365093.4377418,3.353489875793457,0.9574560523033142,1.3643748760223389,7.197693347930908,-5.124302387237549,4.2627272605896,2.2040019035339355,-3.653365135192871,-2.1469531059265137,0.41662701964378357,-0.33038997650146484,0.8457798361778259,0.04382744058966637,-135.28125,-22.481250762939453,-93.5875015258789,,,,backward 2.0
1762365093.4529884,5.438350200653076,1.6228879690170288,0.019149120897054672,7.554600238800049,-4.950737476348877,3.8280982971191406,1.0971139669418335,-3.764542579650879,-1.2892982959747314,0.44872182607650757,-0.32177117466926575,0.8329989910125732,0.03499700129032135,-136.2937469482422,-24.39375114440918,-90.91875457763672,,,,backward 2.0
1762365093.4677572,9.679880142211914,2.7299466133117676,-1.2267405986785889,7.5751051902771,-5.017993450164795,3.697789192199707,0.6243042945861816,-2.5880160331726074,0.3404901623725891,0.4577804505825043,-0.3193221986293793,0.8295020461082458,0.019920745864510536,-136.7687530517578,-24.45625114440918,-90.15625,,,,backward 2.0
1762365093.4979784,6.024792194366455,1.4589236974716187,-2.265580415725708,7.285423755645752,-5.231986999511719,3.9730372428894043,0.7012733221054077,0.47730568051338196,1.298326849937439,0.43942204117774963,-0.3231236934661865,0.8380993008613586,0.009430041536688805,-136.74375915527344,-23.475000381469727,-90.0374984741211,,,,backward 2.0
1762365093.511902,-0.8569231629371643,0.8509390354156494,0.025133220478892326,6.751923084259033,-5.626059055328369,4.358336925506592,0.1368338167667389,2.4137485027313232,2.1633119583129883,-0.4065563976764679,0.3355211615562439,-0.8497772216796875,0.004016632214188576,-134.18125915527344,-19.86250114440918,-92.36250305175781,,,,backward 2.0
1762365093.5437584,-2.492976188659668,0.9574560523033142,-0.8521358966827393,5.971074104309082,-6.205528736114502,4.698276042938232,-0.4544837474822998,2.9537534713745117,3.075944662094116,-0.363976389169693,0.3578513562679291,-0.8595899343490601,0.023848887532949448,-131.55625915527344,-16.962499618530273,-94.4625015258789,,,,backward 2.0
1762365093.557764,-4.461745262145996,2.761063814163208,-1.7353891134262085,4.798055171966553,-6.981860160827637,4.946555137634277,-0.9908234477043152,3.546292543411255,4.754602432250977,-0.30771711468696594,0.39139774441719055,-0.8654621839523315,0.05561693757772446,-126.0062484741211,-12.756250381469727,-95.86250305175781,,,,backward 2.0
1762365093.5729482,-11.90955638885498,1.8981566429138184,-1.119026780128479,3.649024486541748,-7.519647598266602,5.135721683502197,-1.547932505607605,3.9836721420288086,6.065519332885742,-0.2541586756706238,0.4167059659957886,-0.8687785863876343,0.08356654644012451,-119.38750457763672,-8.631250381469727,-97.9312515258789,,,,backward 2.0
1762365093.6022124,-27.341354370117188,-0.4212806522846222,-3.4671876430511475,2.9636831283569336,-7.809030532836914,5.145068645477295,0.05375614017248154,2.1608502864837646,3.2433218955993652,-0.2321474701166153,0.42880257964134216,-0.8652953505516052,0.11618858575820923,-116.75,-6.662499904632568,-98.6187515258789,,,,backward 2.0
1762365093.6304615,-13.853192329406738,-7.214431285858154,0.6020004749298096,2.0938825607299805,-8.253799438476562,4.8709917068481445,-1.2229522466659546,-0.5171829462051392,4.647089958190918,-0.20959316194057465,0.4558553099632263,-0.8506568670272827,0.15700162947177887,-114.0250015258789,-1.6062500476837158,-94.9375,,,,backward 2.0
1762365093.6334603,-10.329753875732422,-11.652239799499512,2.1363236904144287,0.7499794960021973,-8.549764633178711,4.7513322830200195,-1.5173892974853516,1.460798740386963,5.519405841827393,-0.157476007938385,0.48273545503616333,-0.8392285108566284,0.19458505511283875,-108.70000457763672,0.9000000357627869,-93.6812515258789,,,,backward 2.0
1762365093.6632838,-17.321577072143555,-13.26794719696045,3.043513298034668,-0.6841846704483032,-8.550402641296387,4.760108947753906,-0.5827654600143433,3.3691418170928955,6.336743354797363,-0.09927789866924286,0.49752265214920044,-0.8289473652839661,0.23550274968147278,-100.89375305175781,1.100000023841858,-93.8812484741211,,,,backward 2.0
1762365093.6776495,-18.177303314208984,-13.271537780761719,3.434873580932617,-1.7915393114089966,-8.362213134765625,4.806234359741211,0.6377432942390442,2.0802161693573,5.6476874351501465,-0.05370854213833809,0.5021447539329529,-0.8199464678764343,0.2695438265800476,-95.5687484741211,2.8500001430511475,-94.0562515258789,,,,backward 2.0
1762365093.7218554,-16.04217529296875,-15.351611137390137,4.204428672790527,-2.734154462814331,-8.2417573928833,4.564420700073242,0.20036379992961884,2.0655553340911865,4.3135576248168945,-0.014142008498311043,0.5168740749359131,-0.8047317266464233,0.2916300296783447,-91.39375305175781,2.512500047683716,-93.0625,,,,backward 2.0
1762365093.7247765,-18.277835845947266,-17.353891372680664,3.7280945777893066,-3.4952826499938965,-8.241368293762207,4.012351989746094,-1.6884315013885498,2.253701686859131,3.652601480484009,0.012288196943700314,0.5434573292732239,-0.7799338698387146,0.310171514749527,-86.79375457763672,2.893749952316284,-89.70625305175781,,,,backward 2.0
1762365093.7367666,-17.677032470703125,-20.144874572753906,4.096714973449707,-4.057586669921875,-8.258401870727539,3.401607036590576,-3.1105258464813232,1.1199358701705933,3.083275079727173,0.023992378264665604,0.5710077881813049,-0.7510404586791992,0.3306249678134918,-85.3125,2.9000000953674316,-86.95000457763672,,,,backward 2.0
1762365093.7668626,-13.027386665344238,-22.043031692504883,6.693814754486084,-4.502829551696777,-8.230645179748535,2.8665542602539062,-3.028669834136963,0.2842722535133362,2.583587408065796,0.03309689834713936,0.5939704775810242,-0.7255460023880005,0.34595775604248047,-83.30000305175781,2.28125,-84.10625457763672,,,,backward 2.0
1762365093.782202,-9.754083633422852,-21.079591751098633,6.733309745788574,-4.868468761444092,-8.155351638793945,2.4544591903686523,-2.2259929180145264,1.0014280080795288,2.190190076828003,0.04552818834781647,0.6105958819389343,-0.7071235775947571,0.35366106033325195,-81.64375305175781,3.0625,-81.7750015258789,,,,backward 2.0
1762365093.8143346,-10.482946395874023,-21.662443161010742,6.009233474731445,-5.118988037109375,-8.051894187927246,2.2801499366760254,-1.2791517972946167,0.7851817607879639,1.6452983617782593,0.05378587543964386,0.6171640753746033,-0.6965169906616211,0.36204931139945984,-81.51875305175781,2.5250000953674316,-79.53125,,,,backward 2.0
1762365093.8295279,-7.635712146759033,-25.291200637817383,6.014020919799805,-5.274183750152588,-7.9543962478637695,2.2686262130737305,-0.19547687470912933,-0.012608259916305542,1.3520829677581787,0.05927005037665367,0.617137610912323,-0.6923881769180298,0.36908915638923645,-82.14375305175781,2.0375001430511475,-77.8187484741211,,,,backward 2.0
1762365093.8434508,-4.297780990600586,-24.561141967773438,5.423988342285156,-5.282613277435303,-7.998612880706787,2.086216926574707,-0.35674530267715454,0.07779979705810547,0.681352972984314,0.05452662706375122,0.6250565648078918,-0.6845904588699341,0.3710351288318634,-82.5875015258789,2.6000001430511475,-77.2437515258789,,,,backward 2.0
1762365093.872037,-2.0609240531921387,-20.842620849609375,6.337162017822266,-5.126951694488525,-8.184135437011719,1.7234840393066406,-1.9914207458496094,-0.2765020430088043,-0.3009183406829834,0.0371219702064991,0.6409202218055725,-0.672193169593811,0.36878126859664917,-82.20000457763672,2.25,-75.85625457763672,,,,backward 2.0
1762365093.8875725,0.9526687860488892,-18.881032943725586,9.636795043945312,-4.843722343444824,-8.411124229431152,1.4238910675048828,-2.5912904739379883,-0.20808513462543488,-1.169568657875061,0.01960114948451519,0.6534847617149353,-0.6667554378509521,0.35778582096099854,-82.4312515258789,4.762500286102295,-74.36250305175781,,,,backward 2.0
1762365093.9189558,2.761063814163208,-20.836637496948242,9.627220153808594,-4.397365570068359,-8.66413402557373,1.3535404205322266,-0.7318165898323059,0.5261749029159546,-2.0186715126037598,0.006193322595208883,0.6564859747886658,-0.6758285760879517,0.335027813911438,-84.5062484741211,5.856250286102295,-73.8062515258789,,,,backward 2.0
1762365093.9481313,2.1435046195983887,-20.007240295410156,8.033056259155273,-3.772359848022461,-8.920372009277344,1.5596036911010742,0.5705481171607971,0.6788911819458008,-2.906869411468506,-0.012076529674232006,0.6483545899391174,-0.6954825520515442,0.3095068037509918,-88.625,7.056250095367432,-73.9749984741211,,,,backward 2.0
1762365093.9513717,2.3661131858825684,-18.178499221801758,7.015758991241455,-2.8469059467315674,-9.165853500366211,2.029374122619629,1.63467538356781,-0.515961229801178,-3.85859751701355,-0.04537074640393257,0.6280983686447144,-0.7233211398124695,0.2832674980163574,-93.41875457763672,7.756249904632568,-76.2562484741211,,,,backward 2.0
1762365093.9774766,2.8951077461242676,-14.813041687011719,5.4574995040893555,-1.6657702922821045,-9.3147554397583,2.587787628173828,2.2272145748138428,-1.5043412446975708,-5.214718341827393,-0.08661079406738281,0.6005024313926697,-0.7545139193534851,0.2502082884311676,-97.4000015258789,7.25,-78.9937515258789,,,,backward 2.0
1762365093.992207,1.401476263999939,-11.515802383422852,4.149374961853027,-0.3276834487915039,-9.26296329498291,3.213446617126465,2.7794368267059326,-1.3357423543930054,-6.036942958831787,-0.12987008690834045,0.5651102066040039,-0.7870835065841675,0.21043701469898224,-102.7125015258789,7.293750286102295,-82.1500015258789,,,,backward 2.0
1762365094.0234692,-1.570227861404419,-8.109652519226074,2.8268890380859375,1.074232816696167,-8.997363090515137,3.7589383125305176,3.134960412979126,-1.58986234664917,-6.7247772216796875,-0.17656105756759644,0.5265350341796875,-0.8142527937889099,0.1690550446510315,-108.84375,5.493750095367432,-85.26875305175781,,,,backward 2.0
1762365094.0537832,-2.0764827728271484,-3.2661218643188477,0.4727439284324646,2.454080581665039,-8.537084579467773,4.163145542144775,2.707354784011841,-1.933168649673462,-6.693012237548828,-0.22559814155101776,0.4867408275604248,-0.8339126706123352,0.12953217327594757,-116.625,1.1437500715255737,-89.16875457763672,,,,backward 2.0
1762365094.0565178,-1.1716868877410889,-0.6067877411842346,0.5756704211235046,3.799243927001953,-7.88292121887207,4.434118747711182,2.5729644298553467,-2.5037167072296143,-6.606269359588623,-0.27742907404899597,0.4438841938972473,-0.8469541072845459,0.09310607612133026,-122.01250457763672,-2.981250047683716,-91.33125305175781,,,,backward 2.0
1762365094.082924,0.45359480381011963,0.20345941185951233,1.5642437934875488,4.9441728591918945,-7.135774612426758,4.568587303161621,2.548529863357544,-2.8665707111358643,-6.056490898132324,-0.32492876052856445,0.40195488929748535,-0.8537322282791138,0.0632050558924675,-127.05000305175781,-8.131250381469727,-91.4312515258789,,,,backward 2.0
1762365094.097454,2.156669855117798,-0.056250542402267456,1.632462501525879,5.8090081214904785,-6.437978267669678,4.587371826171875,2.1087067127227783,-2.55869460105896,-4.905620574951172,-0.36299461126327515,0.3666386902332306,-0.8557090163230896,0.03966282680630684,-130.5500030517578,-11.52500057220459,-91.0687484741211,,,,backward 2.0
1762365094.1278968,2.574359893798828,0.09215514361858368,0.4978771507740021,6.427129745483398,-5.814755916595459,4.5952935218811035,1.8655824661254883,-2.0333504676818848,-3.8072848320007324,-0.39180833101272583,0.3350693881511688,-0.8565293550491333,0.023919884115457535,-133.6437530517578,-15.100000381469727,-91.23750305175781,,,,backward 2.0
1762365094.1434953,2.452284336090088,0.9993447661399841,0.5062549114227295,6.828841686248779,-5.404307842254639,4.516247749328613,1.7299703359603882,-1.6057448387145996,-2.6490843296051025,-0.412016898393631,0.3163165748119354,-0.8544166088104248,0.012579033151268959,-135.4875030517578,-18.856250762939453,-90.5875015258789,,,,backward 2.0
1762365094.159505,1.9400453567504883,1.7425700426101685,0.19388484954833984,7.073386192321777,-5.250569820404053,4.31680965423584,0.03298672288656235,-1.1097222566604614,-1.6765868663787842,0.424708753824234,-0.31559720635414124,0.8485403656959534,0.0004328599025029689,-135.93125915527344,-20.506250381469727,-91.10625457763672,,,,backward 2.0
1762365094.1887634,1.8454965353012085,2.2907135486602783,-0.6450859904289246,7.137609958648682,-5.291098594665527,4.158714771270752,-1.253495454788208,-0.4194445013999939,-0.915448784828186,0.4271460175514221,-0.32493576407432556,0.8437139987945557,0.010474218986928463,-135.5437469482422,-22.043750762939453,-91.03125,,,,backward 2.0
1762365094.2040238,1.6384466886520386,2.6198391914367676,-0.8090503811836243,6.994467735290527,-5.480239391326904,4.156982898712158,-1.281595230102539,0.36734992265701294,0.20732155442237854,0.41784268617630005,-0.33694618940353394,0.8436437845230103,0.011831155978143215,-134.7687530517578,-20.26875114440918,-92.125,,,,backward 2.0
1762365094.232327,0.5134357810020447,2.2907135486602783,-1.214772343635559,6.614973545074463,-5.812407970428467,4.323671817779541,-0.8014551997184753,1.3471777439117432,1.4107260704040527,0.39502066373825073,-0.3515509366989136,0.8487294912338257,0.005373131018131971,-133.5812530517578,-18.59375,-92.2562484741211,,,,backward 2.0
1762365094.2481954,-0.9502751231193542,0.7288634181022644,-1.9448325634002686,5.950042247772217,-6.303926944732666,4.592779159545898,-0.8100073337554932,2.5127086639404297,2.4149885177612305,-0.3566793203353882,0.3724154531955719,-0.8567658066749573,0.006247174460440874,-130.6687469482422,-15.0,-94.0250015258789,,,,backward 2.0
1762365094.2625508,-4.705896377563477,0.4966803193092346,-2.093238353729248,5.0300822257995605,-6.926111698150635,4.792011260986328,-1.1227703094482422,3.3911328315734863,3.66481876373291,-0.30987873673439026,0.3996674120426178,-0.8622689843177795,0.027081511914730072,-126.51250457763672,-11.850000381469727,-95.84375,,,,backward 2.0
1762365094.2928457,-11.245321273803711,0.6031973361968994,-2.684467315673828,4.0299906730651855,-7.577332496643066,4.751769065856934,-1.5515977144241333,2.792484998703003,4.720394134521484,-0.26846790313720703,0.4309697449207306,-0.8594949841499329,0.058808427304029465,-122.09375,-9.106249809265137,-95.98125457763672,,,,backward 2.0
1762365094.3077707,-13.89388370513916,-0.39495062828063965,-1.5582597255706787,3.029865264892578,-8.080638885498047,4.664687156677246,-1.4672982692718506,1.4424726963043213,5.297050952911377,-0.2340508997440338,0.4554871618747711,-0.8531588912010193,0.09935565292835236,-117.8187484741211,-4.131249904632568,-95.20625305175781,,,,backward 2.0
1762365094.3379493,-13.932182312011719,-5.183427810668945,0.7851139307022095,2.0100650787353516,-8.356522560119629,4.729087829589844,-0.5412266254425049,0.8438248038291931,5.231077194213867,-0.19923441112041473,0.46826449036598206,-0.8489689230918884,0.14242812991142273,-113.85625457763672,-1.493749976158142,-94.5687484741211,,,,backward 2.0
1762365094.351952,-15.685523986816406,-12.152510643005371,2.301485061645508,0.7771996259689331,-8.4507474899292,4.921072959899902,0.9761626720428467,1.0857274532318115,5.200533866882324,-0.15105168521404266,0.47577744722366333,-0.8464171886444092,0.18546512722969055,-109.6875,0.625,-92.46875,,,,backward 2.0
1762365094.3679495,-17.246177673339844,-12.4696683883667,0.6965492963790894,-0.6880730390548706,-8.56978702545166,4.724555492401123,-0.16859881579875946,3.233529567718506,6.502898693084717,-0.09269276261329651,0.5006046891212463,-0.8310572504997253,0.22393512725830078,-101.7125015258789,2.768749952316284,-93.7125015258789,,,,backward 2.0
1762365094.3979416,-19.645801544189453,-8.106061935424805,1.370358943939209,-1.5972400903701782,-8.682271957397461,4.278212070465088,-1.7678439617156982,2.312344789505005,5.32148551940918,-0.0635119080543518,0.527174174785614,-0.8090739846229553,0.2518989145755768,-95.64375305175781,2.9625000953674316,-92.23125457763672,,,,backward 2.0
1762365094.412944,-21.958057403564453,-15.709460258483887,4.302567958831787,-2.309422016143799,-8.794525146484375,3.682257652282715,-2.965139865875244,0.4663100838661194,3.378933906555176,-0.046827565878629684,0.5568917393684387,-0.7816016674041748,0.2770880460739136,-94.8125,4.612500190734863,-87.4312515258789,,,,backward 2.0
1762365094.4424353,-18.757761001586914,-25.924318313598633,6.533440589904785,-2.992673397064209,-8.677841186523438,3.4605064392089844,-2.272418737411499,0.5701571702957153,3.7185750007629395,-0.024264933541417122,0.5683614611625671,-0.7653418183326721,0.30104562640190125,-92.76875305175781,4.787499904632568,-84.41875457763672,,,,backward 2.0
1762365094.4704285,-16.98526954650879,-25.534156799316406,6.577723026275635,-3.5723519325256348,-8.47722053527832,3.4075160026550293,0.036651913076639175,0.6226915717124939,2.9867584705352783,-0.001829179236665368,0.5712451338768005,-0.7553374767303467,0.3211558163166046,-89.1937484741211,4.40625,-83.92500305175781,,,,backward 2.0
1762365094.4734285,-13.495343208312988,-18.50164031982422,6.192347049713135,-4.004387378692627,-8.410884857177734,3.0753870010375977,-0.5766568183898926,0.4137756824493408,2.6190176010131836,0.00877412874251604,0.5858117938041687,-0.736839771270752,0.33736446499824524,-87.38750457763672,4.037499904632568,-82.8375015258789,,,,backward 2.0
1762365094.5024276,-11.64027214050293,-18.533954620361328,5.2923383712768555,-4.267565727233887,-8.486679077148438,2.4495463371276855,-2.9834659099578857,0.04236961156129837,1.7613626718521118,0.003468167968094349,0.6124855279922485,-0.7082129716873169,0.35111814737319946,-86.51875305175781,3.5375001430511475,-80.0562515258789,,,,backward 2.0
1762365094.517428,-10.219646453857422,-23.42535972595215,4.8243818283081055,-4.412631034851074,-8.52099323272705,2.0389885902404785,-3.5992181301116943,-0.7859636545181274,1.2946616411209106,-0.00800794456154108,0.629294753074646,-0.6854808926582336,0.36611464619636536,-87.34375,3.8500001430511475,-75.3687515258789,,,,backward 2.0
1762365094.5474277,-5.312684059143066,-25.29479217529297,4.999117374420166,-4.49855899810791,-8.505880355834961,1.9102611541748047,-1.8594738245010376,-1.2184562683105469,1.062532901763916,-0.01652880758047104,0.6343215703964233,-0.6735801100730896,0.37901565432548523,-87.59375,4.481250286102295,-73.39375305175781,,,,backward 2.0
1762365094.5624278,-1.183655023574829,-23.320037841796875,4.040464401245117,-4.536136150360107,-8.509346961975098,1.8029441833496094,-1.009149432182312,-1.0718486309051514,0.6837964653968811,-0.025661958381533623,0.6383167505264282,-0.6638211011886597,0.38888928294181824,-88.3375015258789,5.243750095367432,-71.2750015258789,,,,backward 2.0
1762365094.577447,2.445103406906128,-20.459638595581055,4.4449896812438965,-4.540229797363281,-8.543490409851074,1.622100830078125,-1.3377948999404907,-1.0156489610671997,0.5042020678520203,-0.03666534274816513,0.6449649333953857,-0.6526438593864441,0.39589381217956543,-89.3499984741211,5.349999904632568,-70.7750015258789,,,,backward 2.0
1762365094.6078162,5.598724365234375,-22.005929946899414,5.535292625427246,-4.426021099090576,-8.6262788772583,1.4945764541625977,-1.359786033630371,-0.5416175723075867,0.0680442675948143,-0.04665770381689072,0.6493434309959412,-0.6487834453582764,0.39402562379837036,-89.23125457763672,4.775000095367432,-67.9375,,,,backward 2.0
1762365094.6218176,6.669878005981445,-24.11113739013672,5.747129917144775,-3.937718391418457,-8.841797828674316,1.5978364944458008,-0.4288274049758911,-0.4389922022819519,-1.3638238906860352,-0.06858092546463013,0.6433175802230835,-0.6597568988800049,0.3823087513446808,-91.08125305175781,6.543750286102295,-67.73125457763672,,,,backward 2.0
1762365094.6528757,7.806857109069824,-20.37825584411621,5.665746212005615,-3.1163296699523926,-9.099095344543457,1.931591510772705,1.027475357055664,-0.99976646900177,-3.415109395980835,-0.09739787876605988,0.6261497735977173,-0.6846398711204529,0.3601642847061157,-93.9124984741211,7.5625,-69.55000305175781,,,,backward 2.0
1762365094.6678174,6.422136306762695,-14.55811882019043,4.403100967407227,-2.111867666244507,-9.303166389465332,2.286308765411377,1.539380431175232,-0.6540167927742004,-4.5891923904418945,-0.12781289219856262,0.6059161424636841,-0.7133486270904541,0.32812076807022095,-99.41875457763672,8.512499809265137,-72.9437484741211,,,,backward 2.0
1762365094.6828177,4.585017681121826,-11.508621215820312,4.729832649230957,-0.956233024597168,-9.375988006591797,2.7226037979125977,1.8008307218551636,-0.2862758934497833,-5.3515520095825195,-0.1588951051235199,0.579642653465271,-0.7453768849372864,0.28840941190719604,-102.61250305175781,8.112500190734863,-76.95000457763672,,,,backward 2.0
1762365094.7121265,2.2201011180877686,-8.972559928894043,4.164933681488037,0.3056037425994873,-9.209714889526367,3.3650965690612793,2.691472291946411,-0.20441994071006775,-6.10536003112793,-0.18973073363304138,0.5408222079277039,-0.7818270921707153,0.24547900259494781,-107.05000305175781,6.143750190734863,-80.5562515258789,,,,backward 2.0
1762365094.7271276,-0.9993447661399841,-4.971590518951416,2.3182404041290283,1.5536218881607056,-8.786381721496582,4.076992988586426,3.740938663482666,-0.5330654382705688,-6.445001125335693,-0.2215820699930191,0.4930553436279297,-0.8157023191452026,0.20597970485687256,-112.26875305175781,4.849999904632568,-84.66875457763672,,,,backward 2.0
1762365094.7571247,-2.2476279735565186,-1.236315131187439,0.7276666164398193,2.753936767578125,-8.209183692932129,4.610992431640625,3.7702603340148926,-1.352846622467041,-6.140789985656738,-0.2586497664451599,0.4450678825378418,-0.839765727519989,0.17265109717845917,-116.92500305175781,1.3625000715255737,-87.9749984741211,,,,backward 2.0
1762365094.7721245,-0.9251419305801392,0.5337817668914795,0.5373722314834595,3.90354061126709,-7.563027381896973,4.8784308433532715,2.9077186584472656,-2.2495968341827393,-5.6777544021606445,-0.30029022693634033,0.4014722406864166,-0.853387713432312,0.14274157583713531,-123.5250015258789,-3.625,-90.7750015258789,,,,backward 2.0
1762365094.787125,0.9718179106712341,1.0412334203720093,1.2817943096160889,4.89323091506958,-6.944987773895264,4.905052185058594,2.230879783630371,-2.6332201957702637,-5.0998759269714355,-0.3406383991241455,0.36600932478904724,-0.8580626249313354,0.11717993021011353,-127.86250305175781,-7.34375,-91.0999984741211,,,,backward 2.0
1762365094.8166988,2.121962070465088,0.9789987802505493,1.187245488166809,5.658738613128662,-6.4373393058776855,4.772363662719727,1.1704177856445312,-2.623446226119995,-4.043078899383545,-0.37579861283302307,0.33990541100502014,-0.8564794659614563,0.09840074181556702,-130.0187530517578,-11.143750190734863,-91.3375015258789,,,,backward 2.0
1762365094.8326924,3.1619985103607178,1.0376429557800293,1.8083951473236084,6.2060980796813965,-6.023913860321045,4.629569053649902,0.9993755221366882,-2.421860694885254,-2.890986919403076,-0.4034181833267212,0.3182641267776489,-0.8533746004104614,0.08782631158828735,-131.83750915527344,-13.362500190734863,-91.0374984741211,,,,backward 2.0
1762365094.8627164,3.1572113037109375,0.9514719247817993,0.5122389793395996,6.54680871963501,-5.753072738647461,4.503061294555664,0.9053022861480713,-1.8806341886520386,-1.8622899055480957,-0.42197856307029724,0.30400702357292175,-0.8501299023628235,0.08241990953683853,-133.16250610351562,-15.268750190734863,-90.20625305175781,,,,backward 2.0
1762365094.8777165,2.624626398086548,1.6563990116119385,-0.7432252764701843,6.657252788543701,-5.6966142654418945,4.411992073059082,0.3738495409488678,-1.1549263000488281,-0.8250406980514526,-0.4293745458126068,0.30127283930778503,-0.8474774360656738,0.08157297223806381,-133.40625,-16.818750381469727,-90.5062484741211,,,,backward 2.0
1762365094.8929584,2.0681049823760986,2.7179782390594482,-0.4978771507740021,6.516073226928711,-5.880367279052734,4.381571292877197,-0.3787364661693573,-0.14699861407279968,0.36736825108528137,-0.42392125725746155,0.31139862537384033,-0.8461822867393494,0.08542369306087494,-133.31875610351562,-16.25,-91.01875305175781,,,,backward 2.0
1762365094.9219873,0.4152965545654297,3.049497604370117,0.28244954347610474,6.088098049163818,-6.236870765686035,4.5025129318237305,-0.8637634515762329,0.9378980398178101,1.7137151956558228,-0.4035259187221527,0.3281477987766266,-0.848484456539154,0.09777563810348511,-131.5437469482422,-14.637499809265137,-91.3687515258789,,,,backward 2.0
1762365094.9369838,-1.5474883317947388,1.2075914144515991,-0.8676945567131042,5.325704574584961,-6.703064441680908,4.78977108001709,-0.4508185386657715,2.1779544353485107,2.8804678916931152,-0.36507508158683777,0.35013318061828613,-0.8547910451889038,0.11601385474205017,-129.0500030517578,-11.543749809265137,-91.84375,,,,backward 2.0
1762365094.9686873,-3.5653269290924072,0.1831134706735611,-1.8814011812210083,4.194649696350098,-7.244938373565674,5.113892078399658,-0.45814892649650574,4.100958347320557,3.984912157058716,-0.30929869413375854,0.3790612518787384,-0.86106938123703,0.13858726620674133,-121.98750305175781,-7.950000286102295,-94.79375457763672,,,,backward 2.0
1762365094.9837234,-14.193089485168457,0.8617104291915894,-1.0962871313095093,3.0279293060302734,-7.879649639129639,4.99788761138916,-1.4917329549789429,3.9726765155792236,5.253068447113037,-0.2649320662021637,0.4184216558933258,-0.8518527150154114,0.17053228616714478,-116.1312484741211,-3.762500047683716,-95.3687515258789,,,,backward 2.0
1762365094.9994955,-17.72849464416504,-0.3805887699127197,-2.8352668285369873,2.066067934036255,-8.393765449523926,4.638122081756592,-2.2907447814941406,1.2653218507766724,5.232298851013184,-0.2383253127336502,0.45475640892982483,-0.8332591652870178,0.20512646436691284,-112.38750457763672,-0.20624999701976776,-93.125,,,,backward 2.0
1762365095.027447,-14.024337768554688,-7.028923988342285,-0.10532016307115555,1.054211139678955,-8.790318489074707,4.225523471832275,-2.582738161087036,0.880476713180542,4.664194583892822,-0.20835267007350922,0.49114254117012024,-0.8124211430549622,0.23524467647075653,-109.76875305175781,2.231250047683716,-89.5999984741211,,,,backward 2.0
1762365095.0421476,-17.525035858154297,-14.8369779586792,1.8407092094421387,-0.23855900764465332,-8.924567222595215,4.065868854522705,-2.032959461212158,1.681931972503662,5.331259250640869,-0.16133970022201538,0.5164675116539001,-0.7957268953323364,0.2721203565597534,-106.41875457763672,3.8187501430511475,-86.2750015258789,,,,backward 2.0
1762365095.0726047,-18.25629234313965,-18.718265533447266,4.233152389526367,-1.4936102628707886,-8.635698318481445,4.407944202423096,0.7660250067710876,2.2744712829589844,6.093618869781494,-0.10390273481607437,0.5143329501152039,-0.7934818863868713,0.30830585956573486,-97.20000457763672,3.6500000953674316,-88.4000015258789,,,,backward 2.0
1762365095.0879202,-15.061980247497559,-15.065570831298828,4.399510383605957,-2.5180020332336426,-8.273507118225098,4.630860805511475,2.8625144958496094,2.7766025066375732,4.626320838928223,-0.04854360222816467,0.5114840865135193,-0.7934781312942505,0.32622092962265015,-92.10625457763672,3.706249952316284,-90.51875305175781,,,,backward 2.0
1762365095.1029394,-18.703903198242188,-12.88017749786377,4.292993545532227,-3.3380420207977295,-8.152335166931152,4.3165998458862305,0.6023131012916565,3.4534411430358887,3.3300647735595703,-0.008608913980424404,0.5290706157684326,-0.7799220085144043,0.3342633545398712,-88.23125457763672,3.2875001430511475,-89.4124984741211,,,,backward 2.0
1762365095.1330447,-18.872655868530273,-15.450946807861328,5.0445966720581055,-3.810023069381714,-8.162911415100098,3.8841609954833984,-1.653001308441162,2.2256019115448,2.3123631477355957,0.009012246504426003,0.5494991540908813,-0.7627358436584473,0.3408864438533783,-86.0062484741211,2.7125000953674316,-87.76250457763672,,,,backward 2.0
1762365095.1471531,-14.345085144042969,-18.410682678222656,6.866156578063965,-4.190851211547852,-8.133363723754883,3.5385427474975586,-1.7079792022705078,1.1614747047424316,1.5768814086914062,0.02356203831732273,0.5648813843727112,-0.7483317255973816,0.3469201624393463,-84.90625,2.7562501430511475,-85.32500457763672,,,,backward 2.0
1762365095.1771903,-11.763544082641602,-19.553646087646484,8.066567420959473,-4.513007164001465,-8.069278717041016,3.2795791625976562,-1.0042624473571777,1.2445523738861084,1.4376041889190674,0.038495197892189026,0.5756415724754333,-0.7378913164138794,0.35024479031562805,-83.4000015258789,1.7000000476837158,-83.4937515258789,,,,backward 2.0
1762365095.1925144,-11.52896785736084,-19.917478561401367,8.185051918029785,-4.672629356384277,-8.05810832977295,3.0772624015808105,-0.6927211880683899,1.0124236345291138,0.9623509645462036,0.04534975066781044,0.5840378999710083,-0.7304818630218506,0.35105469822883606,-82.82500457763672,2.543750047683716,-82.86250305175781,,,,backward 2.0
1762365095.2090824,-9.436925888061523,-20.068279266357422,7.918161392211914,-4.681515216827393,-8.117051124572754,2.9039626121520996,-0.8613200187683105,0.4699752926826477,0.46510666608810425,0.042654380202293396,0.5917518734931946,-0.7244338393211365,0.35100698471069336,-83.5999984741211,2.637500047683716,-81.59375,,,,backward 2.0
1762365095.2394414,-6.425726890563965,-20.450063705444336,8.512981414794922,-4.604269981384277,-8.21621036529541,2.7442097663879395,-1.0409144163131714,-0.1360030323266983,-0.16286279261112213,0.03460707142949104,0.5991113185882568,-0.7192068696022034,0.35015633702278137,-84.15625,2.9125001430511475,-80.2437515258789,,,,backward 2.0
1762365095.253415,-2.0812699794769287,-20.0706729888916,10.89824390411377,-4.509792327880859,-8.320680618286133,2.5815048217773438,-1.1606439352035522,-0.1457768827676773,-0.31802254915237427,0.027636490762233734,0.6063506007194519,-0.7152089476585388,0.34648436307907104,-84.4312515258789,4.025000095367432,-79.6187515258789,,,,backward 2.0
1762365095.2833793,2.218904495239258,-21.60140609741211,14.45040512084961,-4.372406482696533,-8.37043285369873,2.65594482421875,-0.5546656250953674,0.3807889521121979,-0.6283420920372009,0.028431009501218796,0.6031769514083862,-0.723109245300293,0.3353838622570038,-83.625,4.206250190734863,-80.03125,,,,backward 2.0
1762365095.3122034,2.2966976165771484,-23.843050003051758,15.815977096557617,-4.031526565551758,-8.340510368347168,3.2278151512145996,1.9889771938323975,0.654456615447998,-1.2954069375991821,0.027230359613895416,0.5785688757896423,-0.7498025894165039,0.3198634684085846,-83.92500305175781,5.450000286102295,-82.89375305175781,,,,backward 2.0
1762365095.3151925,0.16994844377040863,-22.794633865356445,15.428207397460938,-3.2744359970092773,-8.188464164733887,4.296886920928955,4.576602458953857,-1.2306735515594482,-2.60265851020813,0.005614773835986853,0.5300594568252563,-0.7906164526939392,0.30648189783096313,-86.4625015258789,4.706250190734863,-88.42500305175781,,,,backward 2.0
1762365095.3439105,0.7025333642959595,-15.69031047821045,10.767789840698242,-2.2652156352996826,-7.913854598999023,5.336273670196533,5.433035373687744,-3.223315954208374,-3.5641605854034424,-0.029878512024879456,0.4765773415565491,-0.8279187679290771,0.29416295886039734,-91.23750305175781,2.8375000953674316,-93.91875457763672,,,,backward 2.0
1762365095.3573985,1.5798025131225586,-7.9636406898498535,5.817742347717285,-1.1281049251556396,-7.737637996673584,5.923887252807617,3.7617082595825195,-3.8415117263793945,-3.671672821044922,-0.07679017633199692,0.43837451934814453,-0.8505558371543884,0.28015321493148804,-94.57500457763672,1.318750023841858,-97.4375,,,,backward 2.0
1762365095.3874896,2.2069361209869385,-3.3295533657073975,3.8238401412963867,0.23725223541259766,-7.593332290649414,6.206539154052734,1.8765779733657837,-4.222691535949707,-4.243442535400391,-0.13485170900821686,0.40678948163986206,-0.866078794002533,0.2573809027671814,-102.89375305175781,-1.774999976158142,-99.86250305175781,,,,backward 2.0
1762365095.4172313,1.487647294998169,-2.9501614570617676,1.7078622579574585,1.754637598991394,-7.448455810546875,6.138230323791504,0.970054030418396,-4.6258625984191895,-5.378430366516113,-0.20151382684707642,0.38280075788497925,-0.8728373646736145,0.2258557230234146,-110.2562484741211,-2.4312500953674316,-98.40625,,,,backward 2.0
1762365095.4203694,1.3727525472640991,-3.4731717109680176,-0.1651611626148224,3.2172040939331055,-7.205272674560547,5.8283586502075195,-0.31520646810531616,-4.737040042877197,-5.708297252655029,-0.2668898403644562,0.36291560530662537,-0.87239009141922,0.18973088264465332,-117.3687515258789,-4.012500286102295,-96.20000457763672,,,,backward 2.0
1762365095.4486332,2.775425672531128,-4.219987392425537,0.3410937190055847,4.482419013977051,-6.757948875427246,5.520341396331787,-0.2223549485206604,-4.176265716552734,-5.737618923187256,-0.32159292697906494,0.3394334018230438,-0.8707889914512634,0.1519528329372406,-123.09375,-7.056250095367432,-94.85625457763672,,,,backward 2.0
1762365095.4636502,3.8609414100646973,-4.309749126434326,1.0855157375335693,5.447348117828369,-6.148316860198975,5.362900733947754,0.2883283793926239,-2.9288790225982666,-5.33566951751709,-0.35996171832084656,0.311591237783432,-0.8717138767242432,0.11598855257034302,-127.9937515258789,-10.03125,-93.3687515258789,,,,backward 2.0
1762365095.493543,2.7730321884155273,-3.705354928970337,-0.05864418298006058,6.153959274291992,-5.431506156921387,5.3724894523620605,1.4098769426345825,-1.743800401687622,-4.80543851852417,-0.386080265045166,0.2776956260204315,-0.8753167390823364,0.08745206892490387,-133.03125,-16.950000762939453,-92.41875457763672,,,,backward 2.0
1762365095.5071938,1.3727525472640991,-2.6078708171844482,-0.14481522142887115,6.657904148101807,-4.866110801696777,5.31313419342041,1.7348573207855225,-1.344294548034668,-3.8378281593322754,-0.4066087007522583,0.25272005796432495,-0.8754820227622986,0.06582743674516678,-135.1062469482422,-19.106250762939453,-92.6812515258789,,,,backward 2.0
1762365095.5223541,0.6666287779808044,-0.004787280224263668,-0.8102471828460693,7.0162787437438965,-4.526620864868164,5.149528980255127,0.6133087277412415,-1.1964651346206665,-2.7101707458496094,-0.4233803153038025,0.24142469465732574,-0.8718843460083008,0.04775893688201904,-135.8562469482422,-21.524999618530273,-92.6812515258789,,,,backward 2.0
1762365095.5533025,0.32792869210243225,1.7401763200759888,-0.48710575699806213,7.257839679718018,-4.461879253387451,4.86328125,-0.7440338730812073,-1.0229793787002563,-1.7755470275878906,-0.43648093938827515,0.24821510910987854,-0.8642929792404175,0.029518496245145798,-135.83750915527344,-23.26875114440918,-94.09375,,,,backward 2.0
1762365095.5692968,0.1651611626148224,2.4474971294403076,-1.4924346208572388,7.356184959411621,-4.6590704917907715,4.518375396728516,-2.378709316253662,-0.6723427176475525,-0.9606528282165527,-0.4428553581237793,0.2712651193141937,-0.8544765114784241,0.012816140428185463,-135.3000030517578,-23.65625,-93.2874984741211,,,,backward 2.0
1762365095.6123772,-0.22380535304546356,3.0758275985717773,-1.318895697593689,7.2706708908081055,-5.054115295410156,4.2224860191345215,-3.2204816341400146,-0.14333342015743256,0.17677828669548035,-0.43967902660369873,0.3024384379386902,-0.8456926941871643,0.0041625346057116985,-134.90000915527344,-23.606250762939453,-93.1875,,,,backward 2.0
1762365095.6251323,-1.2315278053283691,3.4827463626861572,-0.9418973922729492,7.016919136047363,-5.544493675231934,4.032064914703369,-2.9040534496307373,0.4565362334251404,1.376517653465271,-0.4277496039867401,0.3339496850967407,-0.8399308323860168,0.004907840862870216,-133.96250915527344,-19.65625,-92.4437484741211,,,,backward 2.0
1762365095.6281314,-2.589918613433838,1.177670955657959,-1.445758581161499,6.598475456237793,-6.138258934020996,3.875307083129883,-2.5888469219207764,0.9623326659202576,2.1474294662475586,-0.4084019958972931,0.368360698223114,-0.8350766897201538,0.012849566526710987,-132.25625610351562,-16.537500381469727,-91.25,,,,backward 2.0
1762365095.6572642,-4.521585941314697,-0.6283305287361145,-0.8210185766220093,5.987950801849365,-6.808749675750732,3.744528293609619,-2.4495697021484375,1.214009165763855,3.165131092071533,-0.3823601305484772,0.4036683142185211,-0.8306081295013428,0.030706290155649185,-130.8874969482422,-13.387499809265137,-90.4437484741211,,,,backward 2.0
1762365095.6724942,-6.852991580963135,-1.3643748760223389,-0.22380535304546356,5.183586120605469,-7.4841108322143555,3.6543989181518555,-1.9083430767059326,1.2885347604751587,4.186497688293457,-0.35137659311294556,0.4362059533596039,-0.826240062713623,0.05988534912467003,-127.40625,-9.36875057220459,-89.48750305175781,,,,backward 2.0
1762365095.7187889,-7.904996395111084,-1.4278063774108887,-0.7360443472862244,4.214550495147705,-8.09954833984375,3.587615489959717,-1.2486085891723633,1.137040138244629,4.998948574066162,-0.3166617453098297,0.4656933844089508,-0.8206649422645569,0.09676814079284668,-121.7249984741211,-4.743750095367432,-88.6187515258789,,,,backward 2.0
1762365095.732871,-8.287979125976562,-0.6738097071647644,-0.9945574402809143,3.0570192337036133,-8.629823684692383,3.5237603187561035,-1.02869713306427,1.242108941078186,5.620809555053711,-0.2752435803413391,0.494611531496048,-0.8128603100776672,0.13732632994651794,-116.67500305175781,-0.11250000447034836,-88.6312484741211,,,,backward 2.0
1762365095.7358701,-10.716326713562012,-2.0537431240081787,-0.7097142934799194,1.8200196027755737,-9.019391059875488,3.402090549468994,-0.9834930300712585,1.6746015548706055,5.970224380493164,-0.22972670197486877,0.523284375667572,-0.8017924427986145,0.17472265660762787,-111.3687515258789,3.03125,-87.20625305175781,,,,backward 2.0
1762365095.7624888,-16.936201095581055,-6.2282514572143555,-0.14720886945724487,0.5286080837249756,-9.329496383666992,2.986166000366211,-1.5430456399917603,1.909173846244812,5.658682823181152,-0.1846442073583603,0.5600950121879578,-0.7800612449645996,0.20905646681785583,-106.5250015258789,5.318749904632568,-85.0562515258789,,,,backward 2.0
1762365095.7775164,-22.600749969482422,-14.31277084350586,-0.4416266083717346,-0.7617368698120117,-9.466459274291992,2.4580564498901367,-3.112969398498535,1.469350814819336,6.1974663734436035,-0.1460132896900177,0.5944719910621643,-0.7503213286399841,0.24960200488567352,-102.04375457763672,6.84375,-79.71875,,,,backward 2.0
1762365095.8095229,-20.789960861206055,-23.87656021118164,1.4194285869598389,-1.8272844552993774,-9.350119590759277,2.33931827545166,-1.4685200452804565,0.17065131664276123,5.865155220031738,-0.1125464141368866,0.606714129447937,-0.7318200469017029,0.2892589271068573,-98.57500457763672,5.887500286102295,-74.70000457763672,,,,backward 2.0
1762365095.8244264,-16.779417037963867,-30.904287338256836,4.155359268188477,-2.7091755867004395,-9.124212265014648,2.3759765625,0.13072516024112701,0.6776694655418396,4.6006646156311035,-0.0730983167886734,0.6111930012702942,-0.7235137224197388,0.3124544322490692,-93.92500305175781,6.625,-75.38750457763672,,,,backward 2.0
1762365095.8394337,-15.902148246765137,-19.93543243408203,4.301371097564697,-3.2677559852600098,-8.964889526367188,2.2778639793395996,0.8087855577468872,1.7698965072631836,3.2689781188964844,-0.043289974331855774,0.6180832386016846,-0.7168732285499573,0.31967490911483765,-90.4375,6.40625,-76.3375015258789,,,,backward 2.0
1762365095.866862,-14.38817024230957,-16.313854217529297,2.891517162322998,-3.6363885402679443,-8.9122953414917,1.8930878639221191,-1.0335839986801147,1.7760051488876343,1.6257506608963013,-0.026248782873153687,0.6346836686134338,-0.7024250626564026,0.3210712969303131,-89.58125305175781,5.956250190734863,-74.55000305175781,,,,backward 2.0
1762365095.8819757,-13.75984001159668,-26.53110694885254,3.3008296489715576,-3.948153257369995,-8.792059898376465,1.8297181129455566,-1.1142182350158691,1.016088843345642,1.3728524446487427,-0.009382765740156174,0.6376944184303284,-0.6979205012321472,0.3258292078971863,-89.7125015258789,4.768750190734863,-72.04375457763672,,,,backward 2.0
1762365095.9128764,-10.251960754394531,-30.814525604248047,5.330636501312256,-4.135912895202637,-8.641632080078125,2.1101059913635254,1.5406020879745483,0.9464501738548279,1.4913603067398071,0.009352556429803371,0.6263895034790039,-0.7080239057540894,0.32596173882484436,-88.46875,3.375,-72.85625457763672,,,,backward 2.0
1762365095.9278755,-8.720030784606934,-22.218963623046875,4.614938259124756,-4.101031303405762,-8.625158309936523,2.241495132446289,1.793500304222107,0.6410175561904907,0.2794036567211151,0.011307130567729473,0.6209884881973267,-0.7138127088546753,0.3235999047756195,-88.2437515258789,4.15625,-74.9000015258789,,,,backward 2.0
1762365095.9431772,-6.669878005981445,-18.05881690979004,7.445417404174805,-3.926144599914551,-8.752747535705566,2.052048683166504,-0.6047565937042236,-0.4548746943473816,-0.5073907971382141,-0.003043925855308771,0.6288092732429504,-0.7079005241394043,0.3216620683670044,-88.8125,4.881249904632568,-74.54375457763672,,,,backward 2.0
1762365095.972662,0.3267318606376648,-19.978517532348633,9.514719009399414,-3.7192015647888184,-8.884323120117188,1.8634486198425293,-1.4685200452804565,-0.382792592048645,-0.7944974303245544,-0.01457733940333128,0.6362472176551819,-0.7045081257820129,0.31407853960990906,-89.9375,5.506249904632568,-73.7249984741211,,,,backward 2.0
1762365095.9873257,3.560539722442627,-21.62653923034668,8.277207374572754,-3.3463385105133057,-9.054316520690918,1.7485675811767578,-0.8026769161224365,0.23173783719539642,-1.3687107563018799,-0.02904178388416767,0.6403396725654602,-0.707151472568512,0.29842668771743774,-91.67500305175781,6.15625,-71.58125305175781,,,,backward 2.0
1762365096.0174267,1.8083951473236084,-23.72576141357422,14.17034912109375,-2.4483652114868164,-9.152953147888184,2.5426506996154785,1.1105530261993408,-0.4047837555408478,-2.591663122177124,-0.06385567784309387,0.6052500605583191,-0.7407766580581665,0.28433212637901306,-102.5687484741211,3.1875,-71.25,,,,backward 2.0
1762365096.0324318,7.606988430023193,-10.123900413513184,4.4796977043151855,-1.848129153251648,-9.282703399658203,2.5791335105895996,2.769663095474243,-0.9447886347770691,-4.115160942077637,-0.08347732573747635,0.6013129353523254,-0.750606119632721,0.2608538269996643,-99.85625457763672,8.46250057220459,-74.11250305175781,,,,backward 2.0
1762365096.0472105,6.216283321380615,-8.872027397155762,7.541162967681885,-1.1438727378845215,-9.511787414550781,2.1103463172912598,-2.5558602809906006,0.39667144417762756,-2.6625232696533203,-0.10858330875635147,0.6169673204421997,-0.7460408806800842,0.22579632699489594,-99.1500015258789,9.168749809265137,-75.9437484741211,,,,backward 2.0
1762365096.0785341,7.614169120788574,-14.798680305480957,9.247828483581543,0.21400833129882812,-9.49228286743164,2.4671578407287598,-0.4740314185619354,0.5823745131492615,-5.129197120666504,-0.1504274159669876,0.592979371547699,-0.7709439992904663,0.17717893421649933,-103.8375015258789,8.77500057220459,-78.0,,,,backward 2.0
1762365096.0920172,2.5288808345794678,-12.27698040008545,6.108569622039795,1.7214022874832153,-9.110084533691406,3.2061243057250977,3.4831535816192627,-1.1756956577301025,-7.482250213623047,-0.19883409142494202,0.5450266003608704,-0.8036965131759644,0.13222315907478333,-110.78125,6.106250286102295,-80.0250015258789,,,,backward 2.0
1762365096.1227033,-1.6611862182617188,-5.8009867668151855,2.229675769805908,3.0353212356567383,-8.500969886779785,3.8414106369018555,4.052480220794678,-1.4518067836761475,-6.912923812866211,-0.2440623939037323,0.49461397528648376,-0.8285888433456421,0.09607881307601929,-118.625,0.06875000149011612,-85.59375,,,,backward 2.0
1762365096.1382322,-2.5432426929473877,-1.6360529661178589,1.522355079650879,4.357675552368164,-7.726169586181641,4.189639091491699,3.6248743534088135,-2.447517156600952,-6.245858669281006,-0.2985946238040924,0.4441869556903839,-0.8421242237091064,0.06607581675052643,-123.75,-2.9750001430511475,-88.23750305175781,,,,backward 2.0
1762365096.1525207,0.14242158830165863,0.7037301659584045,1.164505958557129,5.626512050628662,-6.82774019241333,4.237974643707275,3.165503740310669,-3.6521434783935547,-6.271515369415283,-0.3577059209346771,0.3950236737728119,-0.8452501893043518,0.03943224623799324,-129.00625610351562,-7.900000095367432,-89.75,,,,backward 2.0
1762365096.1844902,1.597754716873169,0.5457499623298645,0.7527998089790344,6.695160865783691,-5.9640727043151855,3.9800477027893066,2.478891134262085,-3.9893410205841064,-5.564133167266846,-0.4146232008934021,0.3538798391819,-0.8381773233413696,0.017763538286089897,-133.35000610351562,-12.61875057220459,-88.75,,,,backward 2.0
1762365096.198196,2.2631866931915283,-0.34588098526000977,0.1460120528936386,7.561350345611572,-5.1485490798950195,3.543238639831543,1.8057177066802979,-4.3021039962768555,-4.729691505432129,-0.46871158480644226,0.31577882170677185,-0.8249707818031311,0.004064303822815418,-136.4250030517578,-17.618749618530273,-86.89375305175781,,,,backward 2.0
1762365096.2273526,3.711338996887207,-0.4416266083717346,0.3662269413471222,8.160244941711426,-4.501110553741455,3.063742160797119,2.205223560333252,-4.451155185699463,-3.694885730743408,-0.5136302709579468,0.28289562463760376,-0.8100332021713257,0.0005053373170085251,-139.7937469482422,-24.40625,-83.6312484741211,,,,backward 2.0
1762365096.242482,8.256861686706543,-0.3351096212863922,-0.3351096212863922,8.456022262573242,-4.07780647277832,2.8466296195983887,1.6774359941482544,-3.2294247150421143,-2.0577666759490967,-0.5375635623931885,0.25678256154060364,-0.8031682968139648,0.00297571555711329,-140.44375610351562,-25.65625,-82.55000305175781,,,,backward 2.0
1762365096.2585375,7.8870439529418945,0.5481435656547546,-1.1166330575942993,8.546686172485352,-3.7642526626586914,3.003443717956543,2.2235496044158936,-0.8922542333602905,-1.3027373552322388,-0.5412582159042358,0.23229041695594788,-0.8080978393554688,0.007657251786440611,-141.3625030517578,-27.431249618530273,-82.8499984741211,,,,backward 2.0
1762365096.2885349,3.1141257286071777,1.9364548921585083,-0.27048131823539734,8.477428436279297,-3.712095022201538,3.254178524017334,2.0561723709106445,0.5347269773483276,-0.259379506111145,-0.5341501235961914,0.2209601104259491,-0.8158312439918518,0.01672445237636566,-141.8874969482422,-28.056249618530273,-84.1187515258789,,,,backward 2.0
1762365096.302527,0.7360443472862244,1.8095918893814087,-0.8174281120300293,8.297008514404297,-3.9677112102508545,3.413651943206787,0.6731734871864319,0.9611109495162964,1.0234375,-0.5223387479782104,0.23059460520744324,-0.8205903768539429,0.024896053597331047,-140.90000915527344,-27.5625,-84.6312484741211,,,,backward 2.0
1762365096.33268,0.36383330821990967,1.8359220027923584,-2.0429718494415283,7.9826579093933105,-4.533354759216309,3.4586105346679688,-1.302364706993103,1.2360002994537354,1.9311832189559937,-0.5042619705200195,0.26351475715637207,-0.8218604922294617,0.02872604690492153,-138.9375,-25.118749618530273,-86.8812484741211,,,,backward 2.0
1762365096.3467915,-0.5828513503074646,2.1877870559692383,-2.5372586250305176,7.454200267791748,-5.361210823059082,3.453756332397461,-3.243694543838501,1.9482691287994385,2.9867584705352783,-0.4752352833747864,0.31323951482772827,-0.8215295076370239,0.03349248319864273,-136.75,-20.693750381469727,-87.2874984741211,,,,backward 2.0
1762365096.3624983,-2.1794092655181885,1.9280771017074585,-1.4589236974716187,6.684589385986328,-6.25443172454834,3.5262527465820312,-3.6028831005096436,2.73995041847229,4.099754810333252,-0.43423110246658325,0.3629268705844879,-0.8231644630432129,0.04612720385193825,-133.30625915527344,-16.200000762939453,-88.59375,,,,backward 2.0
1762365096.3931818,-4.777705669403076,1.139372706413269,-0.6726128458976746,5.729217529296875,-7.068021297454834,3.668140411376953,-2.557081937789917,3.400906801223755,4.755824089050293,-0.3857552111148834,0.40525755286216736,-0.8262064456939697,0.06589489430189133,-129.6750030517578,-11.52500057220459,-89.66875457763672,,,,backward 2.0
1762365096.4082832,-12.253044128417969,-0.13165020942687988,-1.1214203834533691,4.665979385375977,-7.7936906814575195,3.7044739723205566,-1.7825047969818115,3.242081880569458,5.096686840057373,-0.34036001563072205,0.4419773519039154,-0.8242937922477722,0.09669984132051468,-123.7249984741211,-7.025000095367432,-89.2874984741211,,,,backward 2.0
1762365096.437544,-17.706953048706055,-4.155359268188477,-2.218904495239258,3.6211681365966797,-8.431236267089844,3.469510555267334,-1.5344934463500977,1.3251866102218628,5.64646577835083,-0.3091362714767456,0.4770737588405609,-0.8109399080276489,0.13860706984996796,-117.35625457763672,-1.662500023841858,-87.3375015258789,,,,backward 2.0
1762365096.4524822,-11.58043098449707,-5.808167934417725,-0.8736786246299744,2.456453323364258,-8.938234329223633,3.210907459259033,-1.6774359941482544,0.23540303111076355,5.934793949127197,-0.2747415602207184,0.5107467770576477,-0.7940582036972046,0.18200664222240448,-113.51875305175781,2.9625000953674316,-84.9437484741211,,,,backward 2.0
1762365096.4670188,-12.11062240600586,-8.175477981567383,-0.7719489336013794,1.249206781387329,-9.22342300415039,3.09904146194458,-1.4184291362762451,1.1211576461791992,5.964115619659424,-0.23298253118991852,0.5364382266998291,-0.7806395292282104,0.22035212814807892,-109.26875305175781,5.525000095367432,-82.5625,,,,backward 2.0
