timestamp,accel_x,accel_y,accel_z,gravity_x,gravity_y,gravity_z,gyro_x,gyro_y,gyro_z,orient_x,orient_y,orient_z,orient_w,mag_x,mag_y,mag_z,mag_cal_x,mag_cal_y,mag_cal_z,label
1762364876.8985822,2.0022799968719482,2.416379690170288,9.440516471862793,1.979696273803711,2.3496944904327393,9.316429138183594,0.11239920556545258,0.04481307417154312,0.04483139142394066,-0.052730631083250046,-0.14958620071411133,-0.9236198663711548,0.3489552438259125,-115.76875305175781,-59.97500228881836,-112.6812515258789,,,,wave hand 2.0
1762364876.9134147,1.9855244159698486,2.542045831680298,9.423761367797852,1.974759817123413,2.3822922706604004,9.309195518493652,0.07208209484815598,0.04236961156129837,0.06437908113002777,-0.05180259048938751,-0.15113480389118195,-0.92320317029953,0.3495292365550995,-115.6312484741211,-60.13125228881836,-112.48125457763672,,,,wave hand 2.0
1762364876.928661,2.0357909202575684,2.677286386489868,9.655943870544434,1.9727089405059814,2.4167325496673584,9.300748825073242,0.030543260276317596,-0.00039095524698495865,0.08392676711082458,-0.050944920629262924,-0.15284091234207153,-0.9226780533790588,0.35029923915863037,-115.0625,-60.10625076293945,-113.0250015258789,,,,wave hand 2.0
1762364876.9863327,1.9280771017074585,3.3917880058288574,10.527229309082031,2.0097265243530273,2.486027956008911,9.27452278137207,0.1111774742603302,-0.07858170568943024,0.13157425820827484,-0.05117156729102135,-0.1570793092250824,-0.9213165044784546,0.35197076201438904,-115.6187515258789,-60.82500076293945,-112.83125305175781,,,,wave hand 2.0
1762364876.988321,1.6228879690170288,5.799789905548096,12.864619255065918,2.144442558288574,2.644566774368286,9.200202941894531,0.47769662737846375,-0.37179702520370483,0.3111686408519745,-0.05398811027407646,-0.167826309800148,-0.9176859259605408,0.3560506999492645,-115.82500457763672,-60.45624923706055,-112.75,,,,wave hand 2.0
1762364876.9923217,0.8042630553245544,9.721769332885742,16.337791442871094,2.4828691482543945,2.970254898071289,9.013825416564941,1.4538593292236328,-0.991214394569397,0.8096346855163574,-0.062322404235601425,-0.19156111776828766,-0.9090012311935425,0.3648795187473297,-116.89375305175781,-61.29375076293945,-112.5374984741211,,,,wave hand 2.0
1762364877.0182824,0.15438978374004364,10.212465286254883,19.296329498291016,3.125377655029297,3.291184663772583,8.696908950805664,2.2711970806121826,-2.1640756130218506,1.6831719875335693,-0.0829782783985138,-0.22326460480690002,-0.8931374549865723,0.3815404772758484,-119.25,-62.29375076293945,-111.5250015258789,,,,wave hand 2.0
1762364877.0465117,1.5750151872634888,10.954493522644043,18.994731903076172,4.032157897949219,3.387096405029297,8.276798248291016,2.155132532119751,-3.4200146198272705,2.841372489929199,-0.11812558025121689,-0.2533598244190216,-0.8703713417053223,0.40535038709640503,-124.05000305175781,-62.01874923706055,-108.57500457763672,,,,wave hand 2.0
1762364877.0625086,2.246431350708008,10.86712646484375,17.973844528198242,5.069577217102051,3.143174648284912,7.7881927490234375,1.567480206489563,-4.211696147918701,4.028894424438477,-0.16480793058872223,-0.27547529339790344,-0.841511070728302,0.43452367186546326,-127.6812515258789,-59.69375228881836,-104.0,,,,wave hand 2.0
1762364877.0782075,0.8150344491004944,5.554441928863525,13.801729202270508,6.1263275146484375,2.5478615760803223,7.225830078125,0.4508185386657715,-4.717492580413818,4.910984039306641,-0.22092661261558533,-0.2879278361797333,-0.8076360821723938,0.46477192640304565,-131.72500610351562,-56.087501525878906,-100.28125,,,,wave hand 2.0
1762364877.1079612,-0.008377740159630775,-0.4368393123149872,8.298749923706055,7.077441215515137,1.7355272769927979,6.567638397216797,-0.27000245451927185,-4.938625812530518,5.238407611846924,-0.28099238872528076,-0.29377079010009766,-0.770596981048584,0.49083828926086426,-135.21875,-51.681251525878906,-95.4000015258789,,,,wave hand 2.0
1762364877.1229522,-0.2836463451385498,-4.932095527648926,3.237398147583008,7.885451316833496,0.8320519924163818,5.776111602783203,-0.9566149711608887,-5.164645671844482,4.963518142700195,-0.34400975704193115,-0.2953948974609375,-0.7334004640579224,0.5064809918403625,-138.1999969482422,-47.29375076293945,-89.8125,,,,wave hand 2.0
1762364877.137658,1.7365858554840088,-7.098339557647705,-0.27287498116493225,8.48270320892334,0.05855083465576172,4.927112579345703,-1.6603317260742188,-5.231841087341309,4.010568618774414,-0.4007954001426697,-0.2970454692840576,-0.6998359560966492,0.5112305879592896,-141.40000915527344,-41.46875,-82.45625305175781,,,,wave hand 2.0
1762364877.168654,4.5766401290893555,-8.394495964050293,-2.3361928462982178,8.8668794631958,-0.37622547149658203,4.180074691772461,-1.1056660413742065,-4.562332630157471,2.6324565410614014,-0.4401404857635498,-0.3053271174430847,-0.6727976202964783,0.5102892518043518,-142.22500610351562,-40.0,-78.01875305175781,,,,wave hand 2.0
1762364877.183426,5.601118087768555,-9.306472778320312,-5.115209102630615,9.088403701782227,-0.46955251693725586,3.662860870361328,0.01466076448559761,-3.3332717418670654,1.2250230312347412,-0.4593382477760315,-0.3198722004890442,-0.6546874046325684,0.5080105066299438,-142.7312469482422,-38.10625076293945,-74.7249984741211,,,,wave hand 2.0
1762364877.2132182,6.9786577224731445,-9.721769332885742,-8.199414253234863,9.185004234313965,-0.30188751220703125,3.4322991371154785,0.7061602473258972,-1.93072509765625,-0.07489819824695587,-0.4627057611942291,-0.33311349153518677,-0.6506092548370361,0.501643717288971,-143.3125,-38.1875,-72.8062515258789,,,,wave hand 2.0
1762364877.228124,7.982789993286133,-11.410482406616211,-9.701423645019531,9.140491485595703,0.1013941764831543,3.560513973236084,0.2431243658065796,-0.16898976266384125,-1.6167221069335938,-0.4525883197784424,-0.33717963099479675,-0.6674257516860962,0.48581555485725403,-143.80625915527344,-39.8125,-72.63750457763672,,,,wave hand 2.0
1762364877.2432222,6.127718925476074,-9.779216766357422,-7.4131035804748535,8.913825035095215,0.6762747764587402,4.040111064910889,-1.1520918607711792,1.7479053735733032,-3.1903109550476074,-0.4294474422931671,-0.3311448395252228,-0.7022602558135986,0.4612467288970947,-143.50625610351562,-44.35625076293945,-76.55000305175781,,,,wave hand 2.0
1762364877.273126,3.726897716522217,-6.237826347351074,-4.296584129333496,8.462453842163086,1.3220126628875732,4.782811164855957,-1.7275269031524658,3.361811399459839,-4.258103370666504,-0.3934939503669739,-0.31841841340065,-0.7461181879043579,0.4325273931026459,-142.4562530517578,-48.88750076293945,-79.9375,,,,wave hand 2.0
1762364877.2881286,1.7401763200759888,-3.3786230087280273,-0.25851312279701233,7.764641284942627,2.011042594909668,5.648200035095215,-1.7849482297897339,4.489468574523926,-4.842090606689453,-0.3448939025402069,-0.3052351474761963,-0.7909601926803589,0.4028172791004181,-140.46250915527344,-52.28125,-84.6187515258789,,,,wave hand 2.0
1762364877.3181267,-0.7192888259887695,1.6312657594680786,7.343688011169434,6.939626693725586,2.7467150688171387,6.366572380065918,-0.9089674949645996,4.848657131195068,-5.037567615509033,-0.29048022627830505,-0.3018728792667389,-0.8262066841125488,0.37666502594947815,-137.3562469482422,-57.13125228881836,-90.2562484741211,,,,wave hand 2.0
1762364877.333126,-0.5768672823905945,9.615252494812012,13.1733980178833,6.24833869934082,3.6365723609924316,6.6309661865234375,1.441641926765442,3.915255308151245,-4.376611232757568,-0.24102705717086792,-0.32239142060279846,-0.8425258994102478,0.35793840885162354,-134.375,-61.431251525878906,-93.15625,,,,wave hand 2.0
1762364877.34779,2.2224948406219482,16.258800506591797,13.853192329406738,5.89581298828125,4.417024612426758,6.478070259094238,3.1361820697784424,1.9384952783584595,-3.261171340942383,-0.2107209414243698,-0.3541466295719147,-0.8423482179641724,0.3473130166530609,-132.7062530517578,-67.95625305175781,-95.42500305175781,,,,wave hand 2.0
1762364877.3778687,5.331833362579346,26.77406120300293,17.186336517333984,5.939850807189941,4.847143173217773,6.120415687561035,3.141069173812866,-0.01871691271662712,-1.3369457721710205,-0.2031998485326767,-0.3830953538417816,-0.8304172158241272,0.3497928977012634,-132.44375610351562,-70.6624984741211,-94.0250015258789,,,,wave hand 2.0
1762364877.392859,8.080928802490234,26.780046463012695,18.273048400878906,6.329594612121582,4.6520586013793945,5.876282691955566,2.3909265995025635,-0.8959193825721741,1.443712830543518,-0.21806761622428894,-0.3910777270793915,-0.8133772015571594,0.37137898802757263,-133.375,-68.9124984741211,-92.75,,,,wave hand 2.0
1762364877.438146,6.381444454193115,17.358678817749023,15.888982772827148,6.886357307434082,3.8519277572631836,5.82896614074707,-0.19058996438980103,-1.1219395399093628,3.9555907249450684,-0.25138425827026367,-0.37378185987472534,-0.7965022325515747,0.4033327102661133,-135.65000915527344,-65.375,-91.7437515258789,,,,wave hand 2.0
1762364877.4411514,3.7077486515045166,10.81326961517334,11.47152042388916,7.486151218414307,2.6322274208068848,5.767584323883057,-2.246762275695801,-1.3943854570388794,5.5413970947265625,-0.2992192506790161,-0.3413258194923401,-0.7763791680335999,0.4372641444206238,-137.40000915527344,-59.91875076293945,-90.73125457763672,,,,wave hand 2.0
1762364877.4531505,0.8593168258666992,1.2997466325759888,7.159377574920654,8.028572082519531,1.2984869480133057,5.485623836517334,-3.141069173812866,-2.1689624786376953,6.109501361846924,-0.3542153537273407,-0.30812016129493713,-0.7501505613327026,0.4656904339790344,-139.4812469482422,-49.73125076293945,-87.75,,,,wave hand 2.0
1762364877.483144,-0.3410937190055847,-9.502751350402832,3.9973790645599365,8.45822811126709,0.2153921127319336,4.964685440063477,-2.649933338165283,-3.058382272720337,5.349585056304932,-0.4061286449432373,-0.2863869071006775,-0.721689760684967,0.4818776249885559,-141.3562469482422,-45.20624923706055,-82.51875305175781,,,,wave hand 2.0
1762364877.4981506,3.554555654525757,-19.341808319091797,-1.9867212772369385,8.70933723449707,-0.5340671539306641,4.483116626739502,-2.504547595977783,-3.123134136199951,3.7136881351470947,-0.44725677371025085,-0.2673277258872986,-0.7044529318809509,0.4819163382053375,-142.5,-40.243751525878906,-78.42500305175781,,,,wave hand 2.0
1762364877.5281467,8.548885345458984,-23.332006454467773,-6.860172748565674,8.772825241088867,-0.6942770481109619,4.334930896759033,-3.213151216506958,-1.7279179096221924,0.9318077564239502,-0.4653056859970093,-0.2500922381877899,-0.7138561606407166,0.459732323884964,-142.8562469482422,-38.8125,-76.98750305175781,,,,wave hand 2.0
1762364877.543145,5.7734599113464355,-16.963727951049805,-6.969083309173584,8.60865306854248,-0.09742379188537598,4.70294713973999,-2.129476308822632,0.9708847999572754,-2.754153251647949,-0.44453200697898865,-0.25037893652915955,-0.7445446252822876,0.43052878975868225,-142.21250915527344,-40.743751525878906,-77.9000015258789,,,,wave hand 2.0
1762364877.570844,2.5228967666625977,-9.940787315368652,-4.904568672180176,8.183279991149902,0.8725066184997559,5.339361667633057,-0.0708603709936142,3.1993212699890137,-4.823764801025391,-0.39972415566444397,-0.2609250843524933,-0.782598078250885,0.3995985984802246,-141.78750610351562,-47.875,-83.375,,,,wave hand 2.0
1762364877.6008458,1.205197811126709,-0.7073206305503845,-0.5768672823905945,7.528415679931641,1.947786808013916,5.980401515960693,0.6572909951210022,4.0838541984558105,-5.861013889312744,-0.3455522060394287,-0.27528566122055054,-0.8193177580833435,0.36541756987571716,-138.7062530517578,-54.04375076293945,-88.16875457763672,,,,wave hand 2.0
1762364877.6048443,0.43803614377975464,12.35357666015625,8.600348472595215,6.932807922363281,3.3707122802734375,6.067173004150391,2.735454559326172,3.657470226287842,-5.383316993713379,-0.2895267903804779,-0.32701706886291504,-0.8307927250862122,0.34498918056488037,-136.5187530517578,-60.45624923706055,-91.10625457763672,,,,wave hand 2.0
1762364877.6331632,1.3416352272033691,25.366601943969727,11.150772094726562,6.705735206604004,4.637426853179932,5.455594062805176,6.100100517272949,0.8584855794906616,-4.330185413360596,-0.25646811723709106,-0.3951723873615265,-0.8158150911331177,0.3354232907295227,-135.1750030517578,-67.63750457763672,-91.2874984741211,,,,wave hand 2.0
1762364877.6481376,11.39612102508545,39.21261215209961,13.886703491210938,6.95267391204834,5.044153213500977,4.738454341888428,7.224092483520508,-1.0730702877044678,-1.2074424028396606,-0.2536194324493408,-0.44064241647720337,-0.7859538793563843,0.35183510184288025,-134.86875915527344,-70.9124984741211,-88.6937484741211,,,,wave hand 2.0
1762364877.6631365,10.33813190460205,29.055200576782227,16.65015983581543,7.475624084472656,4.3369035720825195,4.641382217407227,2.059837579727173,-1.3455162048339844,3.0454015731811523,-0.2806048095226288,-0.4297640323638916,-0.7664604187011719,0.3861377239227295,-137.77500915527344,-66.8687515258789,-86.8499984741211,,,,wave hand 2.0
1762364877.6923037,6.584903717041016,14.987777709960938,15.186450004577637,8.022974014282227,2.9044573307037354,4.840675354003906,-1.8313740491867065,-0.14699861407279968,6.419821262359619,-0.3237846791744232,-0.3852817118167877,-0.7479386925697327,0.43279242515563965,-138.8249969482422,-61.375,-85.7125015258789,,,,wave hand 2.0
1762364877.7083137,1.2171659469604492,4.905765533447266,7.866698265075684,8.419828414916992,1.2344958782196045,4.880431175231934,-3.777590751647949,-0.4194445013999939,7.5767998695373535,-0.3767947852611542,-0.33057212829589844,-0.7263591289520264,0.47026607394218445,-139.66250610351562,-50.9375,-84.4124984741211,,,,wave hand 2.0
1762364877.738436,-2.8819427490234375,-8.252074241638184,-0.49548351764678955,8.748529434204102,-0.08138799667358398,4.437647819519043,-4.649906158447266,-1.4579154253005981,6.02520227432251,-0.43806445598602295,-0.28621625900268555,-0.709023654460907,0.472721129655838,-141.75,-43.775001525878906,-79.36250305175781,,,,wave hand 2.0
1762364877.7524014,1.9939022064208984,-25.49585723876953,-7.044482707977295,8.983062744140625,-1.261690378189087,3.7348127365112305,-6.010913848876953,-4.045540809631348,3.094270706176758,-0.5062196850776672,-0.23105023801326752,-0.7005362510681152,0.4467732608318329,-144.93125915527344,-39.306251525878906,-70.88750457763672,,,,wave hand 2.0
1762364877.780406,8.274813652038574,-25.17271614074707,-5.990084171295166,9.024871826171875,-1.2388875484466553,3.6404623985290527,-6.792821407318115,-1.7010397911071777,1.2335751056671143,-0.515867292881012,-0.21984630823135376,-0.7104699611663818,0.42518356442451477,-144.5500030517578,-37.493751525878906,-71.6500015258789,,,,wave hand 2.0
1762364877.7980106,4.131422996520996,-17.746448516845703,-12.864619255065918,8.845248222351074,-0.417757511138916,4.221750259399414,1.186300277709961,1.8859609365463257,-3.0705814361572266,-0.4773236811161041,-0.2387179285287857,-0.7376764416694641,0.4135328233242035,-144.6374969482422,-42.3125,-73.95625305175781,,,,wave hand 2.0
1762364877.8132424,2.6126582622528076,-10.186135292053223,-7.788905143737793,8.418539047241211,0.7090597152709961,4.986135005950928,2.124589204788208,3.89815092086792,-4.526884078979492,-0.4217664897441864,-0.26072534918785095,-0.7743847370147705,0.3930186629295349,-143.90625,-45.25,-77.95000457763672,,,,wave hand 2.0
1762364877.8569682,0.7013365626335144,-3.1165194511413574,-1.2135754823684692,7.74997091293335,1.9242637157440186,5.698357582092285,1.803274154663086,4.577433109283447,-5.85001802444458,-0.36033499240875244,-0.2823518216609955,-0.8113313913345337,0.3635624349117279,-141.02500915527344,-51.775001525878906,-83.59375,,,,wave hand 2.0
1762364877.8605213,-0.8892372846603394,6.1456708908081055,9.343574523925781,7.090829372406006,3.3276758193969727,5.906167984008789,2.289522886276245,4.04964542388916,-5.828027248382568,-0.30036813020706177,-0.32977426052093506,-0.82668536901474,0.34295666217803955,-137.875,-58.42499923706055,-88.09375,,,,wave hand 2.0
1762364877.874794,-0.49189305305480957,17.683015823364258,11.77910327911377,6.8018083572387695,4.546344757080078,5.413156986236572,6.478837013244629,1.3227431774139404,-4.525662422180176,-0.26712849736213684,-0.39082276821136475,-0.8173526525497437,0.32838180661201477,-135.78750610351562,-68.3499984741211,-89.36250305175781,,,,wave hand 2.0
1762364877.9170449,9.287323951721191,39.21261215209961,13.326591491699219,6.946699142456055,5.223222732543945,4.549442291259766,5.3890533447265625,-1.4566936492919922,-2.482928991317749,-0.259255051612854,-0.44822877645492554,-0.7874004244804382,0.3344822824001312,-135.1875,-73.21875,-87.16875457763672,,,,wave hand 2.0
1762364877.9200482,11.591201782226562,32.6588249206543,14.663439750671387,7.472131729125977,4.726219177246094,4.250436305999756,3.288898468017578,-1.8598647117614746,2.5298311710357666,-0.28629061579704285,-0.4487758278846741,-0.7662856578826904,0.3597835600376129,-136.65000915527344,-69.79375457763672,-84.8187484741211,,,,wave hand 2.0
1762364877.947601,7.191691875457764,19.474655151367188,12.784431457519531,8.08126449584961,3.368917465209961,4.424892425537109,-1.6884315013885498,-0.8165069222450256,5.554835796356201,-0.33249446749687195,-0.40486758947372437,-0.7522487640380859,0.3995640277862549,-139.2624969482422,-64.92500305175781,-84.3812484741211,,,,wave hand 2.0
1762364877.9625976,2.836463451385498,9.665518760681152,8.777478218078613,8.552271842956543,1.5650320053100586,4.54372501373291,-4.403116703033447,-0.5526131391525269,7.569469451904297,-0.3903213143348694,-0.3406800627708435,-0.735113263130188,0.43725839257240295,-140.06875610351562,-57.025001525878906,-83.95000457763672,,,,wave hand 2.0
1762364877.978585,-1.6372498273849487,-2.3445703983306885,-0.4823184907436371,8.843849182128906,-0.0003228187561035156,4.245284080505371,-5.393939971923828,-1.207460641860962,7.19317626953125,-0.45056238770484924,-0.28393346071243286,-0.71604984998703,0.45127370953559875,-141.96250915527344,-43.94375228881836,-78.0875015258789,,,,wave hand 2.0
1762364878.0081728,-2.312256336212158,-16.20494270324707,-8.736786842346191,9.130155563354492,-1.0727653503417969,3.4242615699768066,-4.168544292449951,-3.536078929901123,3.910386562347412,-0.5151079297065735,-0.24522380530834198,-0.6952911615371704,0.437149316072464,-146.35000610351562,-40.23125076293945,-66.32500457763672,,,,wave hand 2.0
1762364878.0229187,12.63243579864502,-34.044742584228516,-11.99453067779541,9.15932846069336,-1.5121498107910156,3.171156406402588,-9.23017406463623,-2.3754351139068604,2.7020952701568604,-0.5426110625267029,-0.2096293717622757,-0.7008692622184753,0.4128088057041168,-144.22500610351562,-36.42499923706055,-67.2249984741211,,,,wave hand 2.0
1762364878.053223,5.169065952301025,-18.070785522460938,-12.96395492553711,9.026249885559082,-0.7456355094909668,3.769211769104004,0.5925393104553223,1.4119294881820679,-2.594106435775757,-0.5056684613227844,-0.2284485101699829,-0.7273802757263184,0.4037680923938751,-145.0749969482422,-38.94375228881836,-69.34375,,,,wave hand 2.0
1762364878.0672214,2.4881889820098877,-13.051322937011719,-7.979199409484863,8.643776893615723,0.36155223846435547,4.6249871253967285,2.342057466506958,4.136388301849365,-4.149369239807129,-0.4485602378845215,-0.25112849473953247,-0.7652923464775085,0.38737043738365173,-144.7624969482422,-43.1875,-72.76250457763672,,,,wave hand 2.0
1762364878.0822423,1.294959306716919,-3.986607551574707,-0.9718179106712341,7.994328498840332,1.5802645683288574,5.4616475105285645,1.794722080230713,5.051464557647705,-5.751058101654053,-0.38396772742271423,-0.2723919153213501,-0.8049060106277466,0.3612448275089264,-141.9499969482422,-51.6875,-82.1500015258789,,,,wave hand 2.0
1762364878.1142852,-0.08018694072961807,5.9110941886901855,9.204743385314941,7.328253746032715,3.0850298404693604,5.7459025382995605,2.537534236907959,4.476029396057129,-5.831692218780518,-0.3184834420681,-0.3251290023326874,-0.821082592010498,0.3445037305355072,-138.47500610351562,-59.97500228881836,-86.4124984741211,,,,wave hand 2.0
1762364878.1292636,-1.4720886945724487,15.411452293395996,9.78879165649414,7.056135177612305,4.243406772613525,5.3329691886901855,7.203322887420654,1.526772141456604,-4.645391941070557,-0.2867220342159271,-0.3820701241493225,-0.8140279054641724,0.33041104674339294,-136.75625610351562,-65.63750457763672,-87.90625,,,,wave hand 2.0
1762364878.1587205,8.623088836669922,37.805152893066406,13.391219139099121,7.156620979309082,4.948466777801514,4.531177520751953,3.6224308013916016,-1.5471017360687256,-2.357090711593628,-0.2768440246582031,-0.43864622712135315,-0.786518931388855,0.335163950920105,-136.40625,-70.5374984741211,-87.8062515258789,,,,wave hand 2.0
1762364878.1728675,12.66115951538086,31.615198135375977,15.13737964630127,7.596981048583984,4.446557998657227,4.330141067504883,3.2119295597076416,-1.6411750316619873,2.3172500133514404,-0.30150163173675537,-0.43404656648635864,-0.7701867818832397,0.35708925127983093,-137.1125030517578,-70.01250457763672,-84.92500305175781,,,,wave hand 2.0
1762364878.1879222,6.768017292022705,17.686607360839844,11.658224105834961,8.108760833740234,3.1249747276306152,4.5517730712890625,-2.252871036529541,-0.5513914227485657,5.012387752532959,-0.3448859453201294,-0.3860791325569153,-0.7612993717193604,0.39040979743003845,-140.00625610351562,-62.525001525878906,-85.25,,,,wave hand 2.0
1762364878.2185936,4.149374961853027,11.350641250610352,8.439974784851074,8.527782440185547,1.3763349056243896,4.649596691131592,-4.692667007446289,-0.5110743045806885,6.91828727722168,-0.3995986580848694,-0.3214629292488098,-0.7460910081863403,0.4246536195278168,-139.96875,-55.493751525878906,-84.40625,,,,wave hand 2.0
1762364878.233052,-1.053201675415039,1.357193946838379,1.150144100189209,8.7804594039917,-0.3375973701477051,4.361843109130859,-5.473352432250977,-1.3186382055282593,7.218832969665527,-0.46085435152053833,-0.25553300976753235,-0.726896345615387,0.4403838515281677,-140.4187469482422,-45.41250228881836,-81.25,,,,wave hand 2.0
1762364878.2636867,-3.118913173675537,-7.658451557159424,-2.8125271797180176,9.029279708862305,-1.557462453842163,3.5046424865722656,-6.217386245727539,-2.9594221115112305,4.887771129608154,-0.5244466066360474,-0.21524344384670258,-0.6978417038917542,0.43777042627334595,-141.5,-39.07500076293945,-74.8062515258789,,,,wave hand 2.0
1762364878.2929368,4.519192695617676,-20.98624038696289,-6.170804023742676,9.100883483886719,-2.510739326477051,2.665750026702881,-3.645643711090088,-4.44260311126709,4.096089839935303,-0.576704204082489,-0.17760424315929413,-0.6722328066825867,0.42891964316368103,-144.5500030517578,-32.85000228881836,-64.3812484741211,,,,wave hand 2.0
1762364878.2960231,7.842761993408203,-22.99809455871582,-7.809250831604004,9.126172065734863,-2.583014488220215,2.505423069000244,-3.571118116378784,-1.8329867124557495,1.7295976877212524,-0.5851126313209534,-0.17304858565330505,-0.6698336005210876,0.4231080710887909,-144.0,-32.35000228881836,-65.375,,,,wave hand 2.0
1762364878.3227763,6.040350914001465,-15.218764305114746,-13.59348201751709,9.096494674682617,-2.092306137084961,3.0186338424682617,0.7464773058891296,1.2934216260910034,-1.3955888748168945,-0.558297872543335,-0.18560318648815155,-0.6906143426895142,0.4206028878688812,-144.38125610351562,-35.28750228881836,-67.1500015258789,,,,wave hand 2.0
1762364878.3391998,6.258172035217285,-14.578465461730957,-8.134785652160645,8.940204620361328,-1.1637258529663086,3.867116928100586,2.138028383255005,3.437558650970459,-3.291714668273926,-0.5098048448562622,-0.2073601931333542,-0.7263224124908447,0.4117724299430847,-145.11875915527344,-37.19375228881836,-70.4312515258789,,,,wave hand 2.0
1762364878.3697355,3.147636651992798,-8.735589981079102,-4.146981716156006,8.56826114654541,-0.047204017639160156,4.776900768280029,2.3432791233062744,4.662954330444336,-4.872633934020996,-0.4527442455291748,-0.22704993188381195,-0.7686144709587097,0.3907720446586609,-144.625,-41.98125076293945,-75.40625,,,,wave hand 2.0
1762364878.3831503,0.9143705368041992,-2.5576045513153076,1.225543737411499,7.974196910858154,0.9778943061828613,5.629566192626953,0.9065240025520325,4.959835052490234,-5.7754926681518555,-0.3973408341407776,-0.23492613434791565,-0.812883734703064,0.35517600178718567,-140.6999969482422,-50.51250076293945,-85.30000305175781,,,,wave hand 2.0
1762364878.3980994,0.010771380737423897,10.455419540405273,16.706411361694336,7.424673557281494,2.231297254562378,6.010960102081299,0.6866125464439392,4.4442644119262695,-5.313678741455078,-0.34272146224975586,-0.27599453926086426,-0.8318998217582703,0.3381001651287079,-138.2624969482422,-56.64374923706055,-89.66875457763672,,,,wave hand 2.0
1762364878.427889,1.6839258670806885,18.372385025024414,17.289262771606445,7.288675785064697,3.478302240371704,5.568907260894775,6.378654956817627,1.3826079368591309,-4.118825912475586,-0.31345343589782715,-0.34337830543518066,-0.820315420627594,0.3330479562282562,-137.25,-63.67499923706055,-90.0062484741211,,,,wave hand 2.0
1762364878.4429057,12.46488094329834,35.47972869873047,14.487506866455078,7.586315155029297,4.150386810302734,4.632302284240723,6.748839378356934,-2.109097719192505,-1.2648637294769287,-0.31111058592796326,-0.40878990292549133,-0.7835178971290588,0.34957224130630493,-137.375,-66.90625,-87.0687484741211,,,,wave hand 2.0
1762364878.4757655,10.965265274047852,28.767963409423828,13.81130313873291,8.06551456451416,3.479285478591919,4.367855548858643,3.3927454948425293,-2.3876523971557617,2.7472991943359375,-0.34269776940345764,-0.3999195396900177,-0.7635717391967773,0.3736051619052887,-138.61875915527344,-64.8125,-84.2125015258789,,,,wave hand 2.0
1762364878.4888327,8.674551963806152,15.373153686523438,10.484143257141113,8.486959457397461,1.969660758972168,4.508666038513184,-3.4917056560516357,-0.9765536189079285,5.44488000869751,-0.3931276202201843,-0.34007528424263,-0.7557136416435242,0.3983670473098755,-140.5124969482422,-55.712501525878906,-83.58125305175781,,,,wave hand 2.0
1762364878.5028918,3.9507029056549072,4.272647380828857,4.355227947235107,8.762216567993164,0.2715458869934082,4.402945518493652,-6.282138347625732,-0.96189284324646,6.4210429191589355,-0.45036715269088745,-0.26973757147789,-0.7433733940124512,0.4144962430000305,-140.6875,-47.14374923706055,-81.01250457763672,,,,wave hand 2.0
1762364878.5333967,0.4631693661212921,-9.293307304382324,-5.342604637145996,9.014948844909668,-0.8435044288635254,3.7756218910217285,-5.885075569152832,-1.9722639322280884,4.867001533508301,-0.5063648223876953,-0.22617971897125244,-0.724858283996582,0.4086782932281494,-143.50625610351562,-42.4375,-72.0999984741211,,,,wave hand 2.0
1762364878.5475247,10.709145545959473,-34.40977478027344,-10.657682418823242,9.108576774597168,-1.5613243579864502,3.2912344932556152,-5.5038957595825195,-3.5006487369537354,2.6691083908081055,-0.54781174659729,-0.179313525557518,-0.7225015759468079,0.3817598223686218,-144.68125915527344,-37.78125,-66.51875305175781,,,,wave hand 2.0
1762364878.5797443,6.0846333503723145,-18.106691360473633,-8.663780212402344,9.065130233764648,-1.1571323871612549,3.5665907859802246,-3.0775392055511475,0.11933863162994385,-0.8641360998153687,-0.5339059829711914,-0.18210159242153168,-0.7414556741714478,0.36335504055023193,-144.63125610351562,-39.118751525878906,-69.01875305175781,,,,wave hand 2.0
1762364878.5946665,1.9903117418289185,-14.1763334274292,-10.70316219329834,8.79211711883545,-0.26979517936706543,4.3430399894714355,1.1154398918151855,3.261629343032837,-3.4163310527801514,-0.4884018301963806,-0.20026448369026184,-0.7755782604217529,0.34617358446121216,-145.03125,-43.88750076293945,-73.03125,,,,wave hand 2.0
1762364878.6093264,2.168637990951538,-10.66965103149414,-3.2541537284851074,8.219781875610352,0.8686609268188477,5.283628463745117,1.5919147729873657,4.8767571449279785,-5.213496685028076,-0.42705875635147095,-0.21982437372207642,-0.817715048789978,0.3172384202480316,-142.8937530517578,-49.61249923706055,-78.9749984741211,,,,wave hand 2.0
1762364878.6385844,-0.9251419305801392,0.007180920336395502,5.486223220825195,7.477392196655273,2.2141988277435303,5.951642990112305,1.2962560653686523,5.397214412689209,-5.839022636413574,-0.3612019121646881,-0.2572692930698395,-0.8476387858390808,0.2912976145744324,-139.16250610351562,-56.66250228881836,-85.375,,,,wave hand 2.0
1762364878.6532109,-1.9316675662994385,6.788363456726074,9.407005310058594,7.006147384643555,3.8496789932250977,5.685945987701416,6.736621856689453,3.3410420417785645,-5.542141914367676,-0.3115374743938446,-0.33636415004730225,-0.8432409167289734,0.2806212902069092,-137.125,-63.79375076293945,-86.4437484741211,,,,wave hand 2.0
1762364878.682922,-0.38896653056144714,26.797998428344727,14.161972045898438,7.015201568603516,4.684331893920898,5.008002281188965,5.716476917266846,-0.7407596111297607,-2.9532952308654785,-0.3057330250740051,-0.38894402980804443,-0.8260565400123596,0.2699638307094574,-136.0812530517578,-70.48125457763672,-87.90625,,,,wave hand 2.0
1762364878.6979315,16.391647338867188,39.21261215209961,18.817602157592773,7.482260704040527,4.745608329772949,4.2108306884765625,8.003556251525879,-2.382765293121338,-0.23372316360473633,-0.32404398918151855,-0.42470720410346985,-0.7929881811141968,0.2928977310657501,-137.59375,-72.11250305175781,-83.0,,,,wave hand 2.0
1762364878.714335,6.0212016105651855,22.73479461669922,13.3936128616333,8.091226577758789,3.716268301010132,4.117951393127441,-0.1111774742603302,-2.38520884513855,4.0594377517700195,-0.36607626080513,-0.3950984477996826,-0.77833092212677,0.3226243257522583,-139.3249969482422,-67.64375305175781,-81.66875457763672,,,,wave hand 2.0
1762364878.742723,4.0045599937438965,11.025106430053711,9.515915870666504,8.600164413452148,2.0827889442443848,4.2350029945373535,-3.595552921295166,-1.1439306735992432,6.802222728729248,-0.41670575737953186,-0.3324229419231415,-0.7670146822929382,0.35712698101997375,-140.4187469482422,-60.42499923706055,-81.29375457763672,,,,wave hand 2.0
1762364878.7577171,1.0687602758407593,-0.6331177949905396,-0.18071982264518738,8.858776092529297,0.5717082023620605,4.1750874519348145,-5.353622913360596,-0.7761898040771484,6.996478080749512,-0.4633505642414093,-0.2692744731903076,-0.7557641267776489,0.37632185220718384,-140.63125610351562,-50.868751525878906,-78.375,,,,wave hand 2.0
1762364878.7878273,-1.256661057472229,-10.22802448272705,-12.863422393798828,9.120802879333496,-0.4870445728302002,3.5790843963623047,-4.390899181365967,-2.209279775619507,3.745453119277954,-0.5201122760772705,-0.21694013476371765,-0.7443820834159851,0.35821157693862915,-145.2624969482422,-44.35625076293945,-66.71875,,,,wave hand 2.0
1762364878.8028367,16.371301651000977,-36.206199645996094,-13.764627456665039,9.059455871582031,-0.886960506439209,3.6572771072387695,-11.65408706665039,-1.5532103776931763,2.1217732429504395,-0.532774031162262,-0.17247113585472107,-0.759609580039978,0.3307550251483917,-145.2312469482422,-41.91875076293945,-68.7249984741211,,,,wave hand 2.0
1762364878.8186035,1.9304707050323486,-15.060783386230469,-10.871912956237793,8.771659851074219,-0.029974937438964844,4.392403602600098,1.8973474502563477,2.770493745803833,-3.0534770488739014,-0.4859899580478668,-0.1998499035835266,-0.785763144493103,0.32626694440841675,-145.3312530517578,-45.10625076293945,-71.0875015258789,,,,wave hand 2.0
1762364878.8617702,-0.24056082963943481,-12.82033634185791,-3.629955291748047,8.260299682617188,1.1922621726989746,5.155779838562012,3.8789942264556885,4.352634906768799,-3.5507214069366455,-0.42364367842674255,-0.24030019342899323,-0.8134390711784363,0.31796032190322876,-143.7937469482422,-49.45624923706055,-75.51250457763672,,,,wave hand 2.0
1762364878.8656778,2.390049695968628,-5.597527503967285,1.7258144617080688,7.480966091156006,2.7350528240203857,5.726319313049316,4.241848468780518,4.8376617431640625,-5.602006912231445,-0.35122033953666687,-0.29117512702941895,-0.8384217023849487,0.2981782853603363,-140.9250030517578,-55.67499923706055,-80.26250457763672,,,,wave hand 2.0
1762364878.892818,-1.183655023574829,5.505372047424316,7.891831398010254,6.772237300872803,4.321467876434326,5.630082130432129,5.941275596618652,3.865164279937744,-6.126129150390625,-0.2896522283554077,-0.3593679368495941,-0.8408276438713074,0.2827811539173126,-137.8249969482422,-63.9375,-83.30000305175781,,,,wave hand 2.0
1762364878.9080148,-2.6210358142852783,20.828258514404297,8.593168258666992,6.558429718017578,4.992962837219238,5.319157123565674,4.587597846984863,0.8181684613227844,-3.8439366817474365,-0.27605652809143066,-0.3907478451728821,-0.8375902771949768,0.26372602581977844,-134.85000610351562,-74.29375457763672,-88.9937515258789,,,,wave hand 2.0
1762364878.9224188,14.183514595031738,39.21261215209961,17.839799880981445,6.811789035797119,5.164737701416016,4.812600612640381,5.451361656188965,-1.1488176584243774,-1.2306551933288574,-0.2825274169445038,-0.41819581389427185,-0.8173027634620667,0.27804091572761536,-135.6750030517578,-75.45000457763672,-85.5374984741211,,,,wave hand 2.0
1762364878.9526713,8.314309120178223,23.59052085876465,16.692049026489258,7.364480972290039,4.298121452331543,4.8504319190979,-1.3329079151153564,-1.285651445388794,3.3862643241882324,-0.3173850178718567,-0.38993334770202637,-0.8092148900032043,0.30395737290382385,-137.0437469482422,-71.875,-85.3812484741211,,,,wave hand 2.0
1762364878.967683,4.184082984924316,11.178298950195312,10.871912956237793,7.933726787567139,2.9226338863372803,4.974967002868652,-2.989574432373047,-0.9337930679321289,5.755199909210205,-0.3609697222709656,-0.34078550338745117,-0.79830402135849,0.34099388122558594,-138.9562530517578,-65.5625,-85.1500015258789,,,,wave hand 2.0
1762364878.9987335,2.7239625453948975,1.166899561882019,2.0501527786254883,8.302660942077637,1.4767630100250244,5.0120954513549805,-4.236961364746094,-0.9020280838012695,6.444255828857422,-0.4050380289554596,-0.28370004892349243,-0.7882297039031982,0.36626821756362915,-139.6125030517578,-56.98125076293945,-84.0625,,,,wave hand 2.0
1762364879.0134094,0.5660958886146545,-8.218563079833984,-7.719489574432373,8.584259986877441,0.48127222061157227,4.723873138427734,-4.4764204025268555,-1.3833898305892944,4.061881065368652,-0.4492665231227875,-0.2395649254322052,-0.7809314131736755,0.36182108521461487,-144.58750915527344,-47.493751525878906,-72.3375015258789,,,,wave hand 2.0
1762364879.0275917,12.54746150970459,-32.43262481689453,-10.497308731079102,8.525382041931152,-0.2500438690185547,4.846798419952393,-9.517280578613281,-1.3772811889648438,1.8004580736160278,-0.4700961112976074,-0.17881864309310913,-0.7984837889671326,0.3308432698249817,-143.35000610351562,-44.82500076293945,-75.16875457763672,,,,wave hand 2.0
1762364879.0579224,3.1165194511413574,-18.80682945251465,-7.166558265686035,8.19653606414795,0.5811736583709717,5.358651161193848,0.6389650702476501,2.32944917678833,-2.1933789253234863,-0.4289425313472748,-0.20709045231342316,-0.8168755769729614,0.32532480359077454,-143.4250030517578,-47.91250228881836,-77.36250305175781,,,,wave hand 2.0
1762364879.0868993,1.628872036933899,-9.895308494567871,-3.7233071327209473,7.658549785614014,1.6550493240356445,5.902841567993164,3.4538321495056152,3.5450708866119385,-3.3491358757019043,-0.37547895312309265,-0.24115799367427826,-0.838141679763794,0.3136509954929352,-141.7937469482422,-51.53125,-80.9437484741211,,,,wave hand 2.0
1762364879.0906017,3.5916569232940674,-1.108255386352539,3.2673187255859375,6.91963005065918,3.0403499603271484,6.2538862228393555,3.4574973583221436,3.9030380249023438,-5.13041877746582,-0.31473761796951294,-0.2866874039173126,-0.8575366139411926,0.2887584865093231,-138.4187469482422,-57.66250228881836,-85.09375,,,,wave hand 2.0
1762364879.1179662,1.160915493965149,9.089848518371582,9.068305969238281,6.329479694366455,4.433826923370361,6.042762756347656,5.546656608581543,2.823028326034546,-5.53114652633667,-0.26694023609161377,-0.34749531745910645,-0.8574788570404053,0.269666463136673,-134.75625610351562,-69.0875015258789,-87.79375457763672,,,,wave hand 2.0
1762364879.132694,3.414527654647827,24.22962188720703,12.061553001403809,6.224177360534668,5.036791801452637,5.668019771575928,3.841120719909668,0.38811933994293213,-3.297823190689087,-0.25679540634155273,-0.3810068666934967,-0.8492054343223572,0.26026904582977295,-133.8562469482422,-74.46875,-90.80000305175781,,,,wave hand 2.0
1762364879.1643958,13.06568431854248,39.21261215209961,18.782894134521484,6.623512268066406,4.963534832000732,5.2657880783081055,4.520402908325195,-1.5055629014968872,0.5286366939544678,-0.2737513482570648,-0.3958173990249634,-0.8313539624214172,0.2779199182987213,-134.56875610351562,-74.8499984741211,-88.55000305175781,,,,wave hand 2.0
1762364879.1791341,7.361639976501465,19.317873001098633,15.362381935119629,7.213226318359375,4.084650039672852,5.246056079864502,-1.0445796251296997,-1.7071484327316284,3.6660406589508057,-0.31019455194473267,-0.3693186640739441,-0.8207902312278748,0.30608242750167847,-136.50625610351562,-71.2874984741211,-86.85625457763672,,,,wave hand 2.0
1762364879.2098672,4.312142848968506,10.111932754516602,10.00780963897705,7.790473937988281,2.7356371879577637,5.29725456237793,-2.9626965522766113,-1.2990905046463013,5.694113254547119,-0.355401873588562,-0.3220200836658478,-0.8087491393089294,0.3404664099216461,-137.6687469482422,-64.9625015258789,-86.2874984741211,,,,wave hand 2.0
1762364879.2240334,2.5037474632263184,0.34348735213279724,1.5415042638778687,8.1769380569458,1.292121410369873,5.263480186462402,-4.133114337921143,-1.3076425790786743,6.169366359710693,-0.4013235867023468,-0.2658349871635437,-0.7973326444625854,0.3640492260456085,-140.03750610351562,-53.00625228881836,-83.2750015258789,,,,wave hand 2.0
1762364879.2379913,0.4212806522846222,-12.071126937866211,-7.050467014312744,8.462295532226562,0.24208807945251465,4.956518173217773,-4.836831092834473,-1.6692748069763184,3.940929889678955,-0.4487026035785675,-0.21456976234912872,-0.7930386066436768,0.351732462644577,-143.34375,-47.19375228881836,-74.63750457763672,,,,wave hand 2.0
1762364879.2679229,10.274700164794922,-28.441232681274414,-7.987576961517334,8.457842826843262,-0.340928316116333,4.958303451538086,-9.412211418151855,-1.6704965829849243,1.1138455867767334,-0.46903374791145325,-0.16519856452941895,-0.8060464262962341,0.32094553112983704,-142.46250915527344,-44.88125228881836,-77.33125305175781,,,,wave hand 2.0
1762364879.2839801,3.9818203449249268,-14.765169143676758,-7.340097427368164,8.170697212219238,0.3440406322479248,5.418250560760498,-0.1258382350206375,1.782113790512085,-2.3497602939605713,-0.4356311857700348,-0.1845695823431015,-0.8249354362487793,0.3092588484287262,-142.9562530517578,-47.48125076293945,-78.375,,,,wave hand 2.0
1762364879.3128884,1.7282081842422485,-9.215514183044434,-4.832759380340576,7.684316635131836,1.3145740032196045,5.954769611358643,2.487443208694458,3.3972415924072266,-3.23673677444458,-0.3880784511566162,-0.21421962976455688,-0.8465706706047058,0.29465773701667786,-140.96250915527344,-50.69375228881836,-80.89375305175781,,,,wave hand 2.0
1762364879.3410838,3.1775572299957275,-1.5067964792251587,1.326076626777649,7.010972023010254,2.5801892280578613,6.358066082000732,3.09586501121521,3.6867916584014893,-4.801773548126221,-0.33269989490509033,-0.25544145703315735,-0.8666552305221558,0.270128071308136,-137.13125610351562,-59.84375,-87.6312484741211,,,,wave hand 2.0
1762364879.344084,1.6647766828536987,10.321375846862793,8.593168258666992,6.453334808349609,3.881772041320801,6.286685943603516,4.619362831115723,3.0148398876190186,-5.125532150268555,-0.2880012094974518,-0.31085848808288574,-0.8699904680252075,0.2520691752433777,-134.78125,-67.1187515258789,-90.0374984741211,,,,wave hand 2.0
1762364879.3722923,3.7496371269226074,25.406095504760742,12.44214153289795,6.3653669357299805,4.742837905883789,5.764001369476318,4.462981700897217,0.5029619932174683,-3.1536591053009033,-0.2738831341266632,-0.3622238337993622,-0.8554959297180176,0.24881479144096375,-134.43125915527344,-72.88750457763672,-91.6312484741211,,,,wave hand 2.0
1762364879.4032547,13.15544605255127,33.47266387939453,14.784317970275879,6.645778179168701,4.798544406890869,5.389222621917725,4.967555999755859,-1.2099041938781738,0.22320404648780823,-0.28416091203689575,-0.3802269697189331,-0.8398988246917725,0.263154000043869,-134.9250030517578,-74.23125457763672,-88.2249984741211,,,,wave hand 2.0
1762364879.4062543,7.7984795570373535,20.32320213317871,14.870489120483398,7.1100311279296875,4.052544593811035,5.409293174743652,-0.5082398653030396,-1.267325520515442,2.6141304969787598,-0.31235334277153015,-0.35599493980407715,-0.8324859738349915,0.2875240743160248,-135.6374969482422,-71.80000305175781,-87.2874984741211,,,,wave hand 2.0
1762364879.434387,6.174394607543945,12.004105567932129,11.22976303100586,7.626336574554443,2.7618353366851807,5.517913818359375,-2.828306198120117,-0.9594494104385376,5.23962926864624,-0.35203438997268677,-0.3079489767551422,-0.8236638903617859,0.3206509053707123,-138.33750915527344,-63.931251525878906,-87.11250305175781,,,,wave hand 2.0
1762364879.447943,4.151768684387207,2.0429718494415283,3.822643280029297,8.00502872467041,1.2619166374206543,5.528398513793945,-4.592484951019287,-1.1647001504898071,5.994658946990967,-0.39646846055984497,-0.24706104397773743,-0.8140672445297241,0.3450625538825989,-138.22500610351562,-55.16250228881836,-85.55000305175781,,,,wave hand 2.0
1762364879.4779096,1.7425700426101685,-9.070698738098145,-3.9423253536224365,8.293097496032715,0.19850993156433105,5.2365288734436035,-5.3805012702941895,-1.4982324838638306,4.471160888671875,-0.43919837474823,-0.20051759481430054,-0.8051038980484009,0.34453627467155457,-140.99375915527344,-48.21875,-80.16875457763672,,,,wave hand 2.0
1762364879.492917,9.627220153808594,-25.268461227416992,-7.739835262298584,8.337800979614258,-0.5515623092651367,5.139354228973389,-6.0842180252075195,-2.0773327350616455,1.404617428779602,-0.46563664078712463,-0.14573222398757935,-0.8140212893486023,0.3151414096355438,-142.41250610351562,-45.25625228881836,-77.20000457763672,,,,wave hand 2.0
1762364879.5240524,5.128374099731445,-16.751890182495117,-6.138490200042725,8.069718360900879,0.03298163414001465,5.578052520751953,-2.207667112350464,1.5157766342163086,-1.5373096466064453,-0.4360276162624359,-0.1599235087633133,-0.832688570022583,0.30155307054519653,-142.36875915527344,-45.95624923706055,-79.32500457763672,,,,wave hand 2.0
1762364879.53897,1.1788676977157593,-11.19625186920166,-4.9751811027526855,7.577085494995117,1.0009846687316895,6.149952411651611,2.6755897998809814,3.3972415924072266,-3.334475040435791,-0.3877255320549011,-0.1903042197227478,-0.8547213077545166,0.28793174028396606,-139.6437530517578,-51.69375228881836,-84.55000305175781,,,,wave hand 2.0
1762364879.554747,2.7024197578430176,-1.1932295560836792,1.6935003995895386,6.900691509246826,2.325075149536133,6.5734758377075195,3.070208787918091,3.876159906387329,-4.573309898376465,-0.330820769071579,-0.23562274873256683,-0.8746211528778076,0.2647213041782379,-136.78750610351562,-58.11249923706055,-89.11250305175781,,,,wave hand 2.0
1762364879.5829012,2.1518824100494385,9.70621109008789,10.33932876586914,6.348676681518555,3.967653274536133,6.33941125869751,5.85086727142334,3.0905871391296387,-5.253813743591309,-0.28061941266059875,-0.3132780194282532,-0.8714775443077087,0.25226277112960815,-134.47500610351562,-65.76875305175781,-90.9375,,,,wave hand 2.0
1762364879.5975814,3.566523790359497,22.989715576171875,9.290914535522461,6.3711161613464355,4.925668716430664,5.602034091949463,7.2766265869140625,0.29038089513778687,-2.9117562770843506,-0.2682899832725525,-0.3774834871292114,-0.8480736613273621,0.2574838697910309,-134.47500610351562,-73.11250305175781,-90.32500457763672,,,,wave hand 2.0
1762364879.627931,14.19907283782959,39.21261215209961,15.802811622619629,6.796341419219971,4.979381561279297,5.0250983238220215,6.847799301147461,-1.7853392362594604,0.9818986654281616,-0.2828702926635742,-0.4048002064228058,-0.8230341076850891,0.2805995047092438,-135.19375610351562,-74.875,-86.8687515258789,,,,wave hand 2.0
1762364879.6440115,6.574132442474365,22.409257888793945,15.105066299438477,7.37680721282959,3.979276657104492,5.09746789932251,-0.7757988572120667,-1.5067846775054932,3.8798434734344482,-0.31936633586883545,-0.37174639105796814,-0.813826858997345,0.3122428357601166,-137.6374969482422,-69.0999984741211,-85.41875457763672,,,,wave hand 2.0
1762364879.6582139,4.716667652130127,10.42549991607666,11.33149242401123,7.917178153991699,2.4324023723602295,5.257168769836426,-3.7274997234344482,-0.8690413236618042,6.301313400268555,-0.36575451493263245,-0.31348711252212524,-0.8035153746604919,0.34973201155662537,-138.9375,-61.431251525878906,-85.0562515258789,,,,wave hand 2.0
1762364879.6879015,1.6528085470199585,-0.8198217153549194,0.49189305305480957,8.249244689941406,0.8476033210754395,5.240958213806152,-4.928460597991943,-0.7957375049591064,6.632402420043945,-0.41343507170677185,-0.24889397621154785,-0.792614758014679,0.3726729154586792,-139.8937530517578,-52.13750076293945,-83.6312484741211,,,,wave hand 2.0
1762364879.702969,-1.046020746231079,-11.88681697845459,-11.099308967590332,8.559292793273926,-0.33495187759399414,4.781467914581299,-5.296201705932617,-2.0101375579833984,4.032559871673584,-0.46874237060546875,-0.19125069677829742,-0.7851283550262451,0.35675951838493347,-143.8000030517578,-45.32500076293945,-74.04375457763672,,,,wave hand 2.0
1762364879.7327626,10.516457557678223,-27.030181884765625,-11.35782241821289,8.517901420593262,-0.9810621738433838,4.766444206237793,-10.575299263000488,-1.6643879413604736,1.7967928647994995,-0.4876444935798645,-0.13879786431789398,-0.7965685129165649,0.32926687598228455,-143.65625,-42.69375228881836,-73.5562515258789,,,,wave hand 2.0
1762364879.7478516,2.1315364837646484,-18.550710678100586,-7.585445404052734,8.242941856384277,-0.26952528953552246,5.312003135681152,0.5900958180427551,2.127863645553589,-2.159170389175415,-0.4504532217979431,-0.16231945157051086,-0.8157654404640198,0.3244551718235016,-143.61875915527344,-44.90625,-76.58125305175781,,,,wave hand 2.0
1762364879.7638495,1.3033370971679688,-11.708490371704102,-3.6598756313323975,7.76071310043335,0.7707293033599854,5.950918197631836,3.6383132934570312,3.600048780441284,-2.7822530269622803,-0.3968144357204437,-0.19806452095508575,-0.8375610113143921,0.31906166672706604,-141.61875915527344,-48.625,-80.9749984741211,,,,wave hand 2.0
1762364879.807173,3.1380622386932373,-1.4469554424285889,1.4625141620635986,7.090144157409668,2.086390972137451,6.450809478759766,3.922976493835449,4.175483703613281,-4.361950397491455,-0.33591192960739136,-0.24161076545715332,-0.8590635061264038,0.3013259470462799,-139.1999969482422,-54.03750228881836,-87.2874984741211,,,,wave hand 2.0
1762364879.810173,2.5300776958465576,7.204856872558594,8.540508270263672,6.4828338623046875,3.6875386238098145,6.372678756713867,5.520999908447266,3.459549903869629,-5.200057506561279,-0.27886760234832764,-0.3121339976787567,-0.860803484916687,0.2895212471485138,-136.10000610351562,-61.900001525878906,-89.0687484741211,,,,wave hand 2.0
1762364879.838167,3.504289150238037,19.074918746948242,9.058731079101562,6.351918697357178,4.611357688903809,5.884268760681152,6.665761470794678,0.9831020832061768,-3.228184700012207,-0.25800925493240356,-0.3654031753540039,-0.8466851115226746,0.2881598174571991,-135.10000610351562,-72.9312515258789,-91.36250305175781,,,,wave hand 2.0
1762364879.8520937,12.013679504394531,39.21261215209961,14.293622016906738,6.654537677764893,4.879462242126465,5.305099964141846,5.5063395500183105,-1.1317133903503418,0.3050599992275238,-0.26150861382484436,-0.4015231132507324,-0.8212025165557861,0.30986905097961426,-136.3249969482422,-72.48750305175781,-87.55000305175781,,,,wave hand 2.0
1762364879.8680863,7.7637715339660645,21.789306640625,14.345085144042969,7.1266913414001465,4.128016948699951,5.329714298248291,0.5534439086914062,-1.1085004806518555,3.183457136154175,-0.28976577520370483,-0.3799852430820465,-0.8110323548316956,0.3374515473842621,-137.44375610351562,-68.92500305175781,-87.03125,,,,wave hand 2.0
1762364879.8980982,5.826119899749756,11.244124412536621,11.678569793701172,7.585047721862793,2.721714496612549,5.594232082366943,-3.221703290939331,-0.4084489345550537,5.372797966003418,-0.3303149342536926,-0.3252122402191162,-0.804263710975647,0.37187230587005615,-139.00625610351562,-62.8125,-88.16875457763672,,,,wave hand 2.0
1762364879.9130938,3.657482147216797,2.8137240409851074,4.928504943847656,7.899320602416992,1.077103614807129,5.716353416442871,-5.34262752532959,-0.48663967847824097,6.232896327972412,-0.37727516889572144,-0.25750744342803955,-0.7957646250724792,0.39763304591178894,-138.34375,-54.525001525878906,-87.0625,,,,wave hand 2.0
1762364879.9432766,1.6791385412216187,-8.179068565368652,-5.682501792907715,8.172492027282715,-0.224043607711792,5.421834945678711,-6.382319927215576,-1.068183422088623,4.743607044219971,-0.428577721118927,-0.19994723796844482,-0.7879718542098999,0.39426207542419434,-141.0500030517578,-44.681251525878906,-77.9749984741211,,,,wave hand 2.0
1762364879.9572773,10.402759552001953,-23.977092742919922,-8.371756553649902,8.201830863952637,-1.1111185550689697,5.266069412231445,-7.033502578735352,-2.134754180908203,2.0655736923217773,-0.4592118263244629,-0.1439492255449295,-0.7936813235282898,0.372119665145874,-141.44375610351562,-40.59375,-78.2750015258789,,,,wave hand 2.0
1762364879.9723415,5.598724365234375,-14.825010299682617,-3.133274793624878,7.962856292724609,-0.6620278358459473,5.691287040710449,-2.2773056030273438,1.574419617652893,-0.8616926074028015,-0.43206992745399475,-0.15244609117507935,-0.8108326196670532,0.36417895555496216,-141.81875610351562,-41.89374923706055,-79.9375,,,,wave hand 2.0
1762364880.0033925,0.5313881039619446,-11.93828010559082,-2.133930206298828,7.584352493286133,0.23517608642578125,6.217588424682617,2.8466320037841797,3.001400947570801,-2.591663122177124,-0.38719645142555237,-0.18214935064315796,-0.829379141330719,0.3592086732387543,-140.875,-44.65625,-83.625,,,,wave hand 2.0
1762364880.0182776,4.9201273918151855,-5.835694789886475,2.320634126663208,7.044654846191406,1.492523431777954,6.661931037902832,4.164879322052002,3.3300464153289795,-3.7608590126037598,-0.3322065770626068,-0.22380982339382172,-0.8495118021965027,0.34333324432373047,-138.58750915527344,-49.40625,-87.2874984741211,,,,wave hand 2.0
1762364880.048276,4.5622782707214355,5.159491062164307,8.672158241271973,6.470264434814453,3.065247058868408,6.706418037414551,4.725653648376465,3.152895450592041,-5.092545509338379,-0.2754862904548645,-0.2868657112121582,-0.8576486706733704,0.32596638798713684,-135.1875,-62.337501525878906,-92.13750457763672,,,,wave hand 2.0
1762364880.0632758,3.544981002807617,18.105493545532227,11.3135404586792,6.3735880851745605,4.209981918334961,6.155447959899902,7.294952869415283,1.2066787481307983,-3.74497652053833,-0.2499169558286667,-0.35186389088630676,-0.8411996364593506,0.3257552683353424,-136.1374969482422,-67.7249984741211,-91.9749984741211,,,,wave hand 2.0
1762364880.0782766,10.455419540405273,30.654151916503906,12.02205753326416,6.659247398376465,4.583398342132568,5.557247161865234,5.387831687927246,-1.333298921585083,0.1389046460390091,-0.25233083963394165,-0.3912610113620758,-0.8167975544929504,0.3407136797904968,-136.28125,-69.5687484741211,-89.09375,,,,wave hand 2.0
1762364880.108133,8.752345085144043,21.439834594726562,13.331378936767578,7.073523044586182,4.025903701782227,5.476629734039307,1.4563027620315552,-1.4261504411697388,2.218289852142334,-0.27811485528945923,-0.3788364827632904,-0.8059340715408325,0.36000731587409973,-137.4562530517578,-67.41875457763672,-88.2874984741211,,,,wave hand 2.0
1762364880.123136,6.081042766571045,12.40863037109375,10.967658996582031,7.494307518005371,2.791317939758301,5.681550025939941,-3.0665435791015625,-0.706551194190979,4.39663553237915,-0.3175225257873535,-0.3310588300228119,-0.8002280592918396,0.3862830698490143,-138.7312469482422,-62.6875,-87.4124984741211,,,,wave hand 2.0
1762364880.1531405,4.835153102874756,3.8681223392486572,5.419201374053955,7.805946350097656,1.253941297531128,5.807834625244141,-5.226562976837158,-0.6564602255821228,5.300715923309326,-0.3645135760307312,-0.266671746969223,-0.7945108413696289,0.40591686964035034,-138.46250915527344,-52.04999923706055,-86.71875,,,,wave hand 2.0
1762364880.1682363,3.2469727993011475,-7.517226696014404,-3.269712448120117,8.040252685546875,-0.08490705490112305,5.619896411895752,-6.480058670043945,-0.9276844263076782,4.424735069274902,-0.4143950045108795,-0.20454749464988708,-0.7910240292549133,0.40089666843414307,-140.1125030517578,-44.29375076293945,-81.2125015258789,,,,wave hand 2.0
1762364880.18314,8.791840553283691,-20.271738052368164,-6.7859697341918945,8.106788635253906,-0.9169983863830566,5.447495937347412,-6.646214008331299,-1.7572393417358398,1.6562938690185547,-0.4455638527870178,-0.1543460637331009,-0.795542299747467,0.3804769217967987,-140.8937530517578,-41.44375228881836,-79.7750015258789,,,,wave hand 2.0
1762364880.2131336,7.573477268218994,-12.948395729064941,-3.166785955429077,7.880449295043945,-0.7397823333740234,5.795459270477295,-3.185051441192627,1.097944736480713,-0.3974350392818451,-0.4277274012565613,-0.1471869796514511,-0.812495768070221,0.3677443265914917,-141.0749969482422,-41.70000076293945,-82.20625305175781,,,,wave hand 2.0
1762364880.2281976,0.4033283591270447,-6.204315185546875,-4.008150577545166,7.48160457611084,-0.10530948638916016,6.344336986541748,1.076344609260559,3.155339002609253,-2.2972259521484375,-0.3876933455467224,-0.1622750163078308,-0.8320136070251465,0.36209672689437866,-140.0187530517578,-43.875,-84.84375,,,,wave hand 2.0
1762364880.2582045,3.7687864303588867,-7.188101291656494,2.486992120742798,6.966874122619629,0.8793714046478271,6.850217819213867,2.9907963275909424,3.3715851306915283,-2.8702175617218018,-0.3376375138759613,-0.19197995960712433,-0.8517853617668152,0.35157695412635803,-137.03750610351562,-50.57500076293945,-91.23125457763672,,,,wave hand 2.0
1762364880.2731981,5.060155391693115,0.5696863532066345,9.208333969116211,6.3842973709106445,2.3467068672180176,7.068933486938477,4.397007942199707,3.565840244293213,-3.9722185134887695,-0.27822181582450867,-0.24960052967071533,-0.8617045879364014,0.34315794706344604,-134.6875,-56.1875,-93.4375,,,,wave hand 2.0
1762364880.2881331,3.0937798023223877,10.317785263061523,10.460206985473633,6.113018989562988,3.7749619483947754,6.679579734802246,8.335866928100586,1.9775906801223755,-3.241623640060425,-0.2354474812746048,-0.32267168164253235,-0.8488852977752686,0.346181184053421,-135.5124969482422,-63.61249923706055,-93.34375,,,,wave hand 2.0
1762364880.3179126,6.669878005981445,27.449068069458008,12.38708782196045,6.416438102722168,4.3757219314575195,5.993203163146973,5.932723045349121,-0.6527950167655945,-0.3668917715549469,-0.23188981413841248,-0.37518414855003357,-0.8199566602706909,0.36487671732902527,-136.71875,-68.2249984741211,-92.7437515258789,,,,wave hand 2.0
1762364880.3339124,12.70783519744873,22.83053970336914,12.862225532531738,6.837698936462402,4.131573677062988,5.6931610107421875,4.517959117889404,-1.8500908613204956,2.346571683883667,-0.24936585128307343,-0.3842465281486511,-0.7997958660125732,0.38794049620628357,-137.09375,-67.09375,-89.29375457763672,,,,wave hand 2.0
1762364880.3627648,4.697518825531006,14.221813201904297,12.969939231872559,7.272740364074707,3.0461695194244385,5.836455345153809,-1.9217820167541504,-1.0413053035736084,3.734457492828369,-0.2879972457885742,-0.3458074927330017,-0.7922188639640808,0.412145733833313,-138.71875,-61.53750228881836,-89.67500305175781,,,,wave hand 2.0
1762364880.377765,4.831562519073486,6.3730669021606445,8.723621368408203,7.640425205230713,1.5287630558013916,5.960109710693359,-4.855156898498535,-0.8592674732208252,5.166325569152832,-0.3378753662109375,-0.2864663898944855,-0.7842951416969299,0.43434834480285645,-138.1999969482422,-53.04375076293945,-88.20625305175781,,,,wave hand 2.0
1762364880.392833,3.421708583831787,-3.9818203449249268,-0.8234121799468994,7.8951005935668945,0.09655475616455078,5.821869850158691,-5.920506000518799,-0.9154670834541321,4.9806227684021,-0.3891831338405609,-0.2276073396205902,-0.7759567499160767,0.4411604702472687,-138.59375,-44.81875228881836,-84.7562484741211,,,,wave hand 2.0
1762364880.4228902,5.166672229766846,-18.140201568603516,-6.464025020599365,8.072765350341797,-0.8289227485656738,5.511755466461182,-5.544212818145752,-2.084663152694702,2.5970263481140137,-0.4307563006877899,-0.18309469521045685,-0.7737165689468384,0.4269520044326782,-140.61875915527344,-40.400001525878906,-79.5,,,,wave hand 2.0
1762364880.4379215,10.650501251220703,-19.059358596801758,-5.475451946258545,7.926036834716797,-0.8789503574371338,5.713274002075195,-4.770857334136963,0.035039227455854416,0.41501572728157043,-0.4258386194705963,-0.16572584211826324,-0.7883239984512329,0.4119972884654999,-140.3249969482422,-39.10625076293945,-80.42500305175781,,,,wave hand 2.0
1762364880.4688547,1.271022915840149,-6.949934005737305,-3.986607551574707,7.565684795379639,-0.24572443962097168,6.239882946014404,0.2541199326515198,2.7778241634368896,-2.6625232696533203,-0.38801079988479614,-0.17723087966442108,-0.8100622892379761,0.40228837728500366,-139.09375,-42.493751525878906,-84.9437484741211,,,,wave hand 2.0
1762364880.483317,1.266235589981079,-10.490127563476562,2.7993621826171875,7.1119866371154785,0.7182865142822266,6.7186174392700195,3.1923818588256836,3.1431214809417725,-3.0168251991271973,-0.3407790958881378,-0.2035495787858963,-0.8312860131263733,0.3891025185585022,-137.68125915527344,-46.31875228881836,-88.20000457763672,,,,wave hand 2.0
1762364880.4987874,4.825578689575195,-1.7138463258743286,6.821874141693115,6.526057243347168,2.0195534229278564,7.040460586547852,3.327993869781494,3.350815773010254,-4.282537937164307,-0.2841845750808716,-0.24576029181480408,-0.8488526344299316,0.37187397480010986,-135.2624969482422,-52.38125228881836,-92.4000015258789,,,,wave hand 2.0
1762364880.528146,3.8788938522338867,8.880404472351074,9.697833061218262,6.130898475646973,3.4530744552612305,6.835531234741211,6.113539218902588,2.4345178604125977,-4.292311668395996,-0.23652037978172302,-0.30929282307624817,-0.8465689420700073,0.36292871832847595,-135.5187530517578,-60.625,-93.86250305175781,,,,wave hand 2.0
1762364880.5428667,6.061893463134766,22.111249923706055,12.013679504394531,6.226006031036377,4.172579765319824,6.329497337341309,5.606521129608154,-0.013829990290105343,-1.8427422046661377,-0.22540369629859924,-0.3557932674884796,-0.8297479748725891,0.36622756719589233,-135.50625610351562,-66.0,-92.83125305175781,,,,wave hand 2.0
1762364880.5727293,9.495570182800293,21.02094841003418,15.225944519042969,6.555527687072754,4.139273643493652,6.010622024536133,3.2253684997558594,-1.7621263265609741,0.6349272131919861,-0.24069014191627502,-0.36839720606803894,-0.8166460990905762,0.37341785430908203,-136.5500030517578,-66.57500457763672,-90.20625305175781,,,,wave hand 2.0
1762364880.588987,8.232925415039062,16.731544494628906,13.86515998840332,6.991020679473877,3.381415843963623,5.9939775466918945,-1.2107349634170532,-1.7315831184387207,2.248833179473877,-0.2760769724845886,-0.34391582012176514,-0.8105250000953674,0.38542526960372925,-138.06875610351562,-63.19375228881836,-89.67500305175781,,,,wave hand 2.0
1762364880.6040812,5.978116035461426,10.206480979919434,9.975495338439941,7.453322410583496,2.2080271244049072,5.984038352966309,-3.8337903022766113,-1.694931149482727,3.8639609813690186,-0.32210543751716614,-0.3020782172679901,-0.8018251061439514,0.40258339047431946,-138.625,-57.743751525878906,-89.0374984741211,,,,wave hand 2.0
1762364880.6449883,4.119454860687256,2.409198760986328,4.8794355392456055,7.870113372802734,0.9428062438964844,5.780012607574463,-4.357912540435791,-1.9087339639663696,4.666637897491455,-0.3715919852256775,-0.25946372747421265,-0.7863782644271851,0.41977038979530334,-139.15625,-51.70624923706055,-87.0062484741211,,,,wave hand 2.0
1762364880.6479886,3.6383330821990967,-6.9786577224731445,-0.43205204606056213,8.184110641479492,-0.03854966163635254,5.408784866333008,-3.7165040969848633,-2.2862486839294434,4.182832717895508,-0.41549769043922424,-0.2273423820734024,-0.7706314921379089,0.4263850748538971,-139.21875,-45.38750076293945,-82.4749984741211,,,,wave hand 2.0
1762364880.6779964,7.310176849365234,-16.82010841369629,-4.900978088378906,8.3385009765625,-0.5650391578674316,5.136754512786865,-3.495370864868164,-2.1860668659210205,1.8859792947769165,-0.4452677369117737,-0.19981113076210022,-0.7703349590301514,0.41036126017570496,-140.78125,-41.462501525878906,-78.6937484741211,,,,wave hand 2.0
1762364880.693317,9.080273628234863,-13.577923774719238,-3.9004366397857666,8.226176261901855,-0.46506595611572266,5.324456691741943,-3.5747833251953125,0.0509217269718647,-0.9044532179832458,-0.4404095411300659,-0.18617303669452667,-0.7883780002593994,0.3870905935764313,-140.71250915527344,-42.150001525878906,-79.5625,,,,wave hand 2.0
1762364880.7084692,1.7497509717941284,-11.040664672851562,-2.329011917114258,7.914358615875244,0.11116647720336914,5.795401096343994,-0.5265658497810364,2.3477749824523926,-2.934969186782837,-0.40944504737854004,-0.19228219985961914,-0.8125021457672119,0.36772632598876953,-139.77500915527344,-44.75625228881836,-81.7562484741211,,,,wave hand 2.0
1762364880.7529216,1.9699658155441284,-9.046762466430664,-1.5235519409179688,7.437099456787109,0.9884662628173828,6.320489883422852,1.4611896276474,3.122352123260498,-3.6741161346435547,-0.36551252007484436,-0.2103695422410965,-0.8385980129241943,0.34481701254844666,-139.38125610351562,-49.15625,-84.73750305175781,,,,wave hand 2.0
1762364880.7674613,4.733423233032227,-2.8197081089019775,1.3057307004928589,6.719119548797607,1.9619427919387817,6.873159408569336,1.4819591045379639,3.8358428478240967,-4.928833484649658,-0.3123909533023834,-0.22824983298778534,-0.8671920299530029,0.3135153353214264,-136.60000610351562,-54.06875228881836,-88.90625,,,,wave hand 2.0
1762364880.7705245,1.456529974937439,6.574132442474365,9.616449356079102,6.063168525695801,3.1620078086853027,7.033903121948242,2.1514673233032227,3.7906386852264404,-5.062002182006836,-0.2621484696865082,-0.26976174116134644,-0.8798104524612427,0.2905862331390381,-133.5437469482422,-63.900001525878906,-93.6624984741211,,,,wave hand 2.0
1762364880.7991064,2.0130512714385986,17.919986724853516,13.51209831237793,5.857053756713867,4.080765724182129,6.728921890258789,5.031085968017578,1.3593950271606445,-3.608142852783203,-0.24086908996105194,-0.3146739900112152,-0.8746592998504639,0.27916592359542847,-133.4375,-70.8375015258789,-92.46875,,,,wave hand 2.0
1762364880.8283105,8.386117935180664,27.736305236816406,16.856014251708984,6.170792102813721,4.45198917388916,6.191705703735352,3.5772268772125244,-1.4261504411697388,-0.6320073008537292,-0.24987798929214478,-0.34925585985183716,-0.8558807373046875,0.2881830930709839,-134.28750610351562,-71.88750457763672,-90.5,,,,wave hand 2.0
1762364880.8558464,10.389595031738281,23.13812255859375,16.62742042541504,6.679601192474365,3.998244285583496,5.969345569610596,1.7922786474227905,-1.6973745822906494,2.344128131866455,-0.27843040227890015,-0.3438437581062317,-0.8421937227249146,0.3081522285938263,-136.15000915527344,-70.4937515258789,-89.0374984741211,,,,wave hand 2.0
1762364880.8596017,5.153507232666016,16.65734100341797,14.331920623779297,7.279909610748291,2.876378297805786,5.91316032409668,-2.576629638671875,-2.0333504676818848,4.113193988800049,-0.32479962706565857,-0.3051571547985077,-0.8320227265357971,0.33033689856529236,-137.34375,-66.95000457763672,-87.75,,,,wave hand 2.0
1762364880.8883328,4.191263675689697,6.309635162353516,7.415497303009033,7.833457946777344,1.5266985893249512,5.704580307006836,-4.295604228973389,-2.3681046962738037,5.13211727142334,-0.3778481185436249,-0.25783228874206543,-0.8168444037437439,0.35145196318626404,-138.3562469482422,-56.13125228881836,-85.3125,,,,wave hand 2.0
1762364880.9022412,2.486992120742798,-3.0315451622009277,0.32792869210243225,8.285120964050293,0.3665328025817871,5.240088939666748,-3.8936550617218018,-2.92154860496521,5.07225227355957,-0.42868572473526,-0.2216971516609192,-0.7949764728546143,0.3675476312637329,-138.66250610351562,-49.45624923706055,-80.8812484741211,,,,wave hand 2.0
1762364880.9342546,4.3899359703063965,-12.84786319732666,-4.180492401123047,8.585331916809082,-0.36042022705078125,4.732682704925537,-2.715906858444214,-3.2196507453918457,3.4705636501312256,-0.4686659574508667,-0.1978255957365036,-0.7784331440925598,0.36777588725090027,-140.5,-44.875,-75.125,,,,wave hand 2.0
1762364880.9488478,10.83361530303955,-19.156301498413086,-5.4359564781188965,8.659953117370605,-0.5786607265472412,4.572360992431641,-3.523470640182495,-1.8867428302764893,0.9672378897666931,-0.48557403683662415,-0.17655575275421143,-0.7833456993103027,0.34556543827056885,-141.8000030517578,-43.84375,-74.32500457763672,,,,wave hand 2.0
1762364880.9632316,6.465221881866455,-11.672586441040039,-2.272761344909668,8.529380798339844,-0.08783912658691406,4.8454155921936035,-1.8643606901168823,0.7253169417381287,-2.2886738777160645,-0.46872785687446594,-0.18256813287734985,-0.8020654916763306,0.32195359468460083,-140.75625610351562,-46.66875076293945,-75.71875,,,,wave hand 2.0
1762364880.9931824,1.7186336517333984,-10.073634147644043,-0.8401677012443542,8.252392768859863,0.7582566738128662,5.249683856964111,1.009149432182312,2.2439279556274414,-3.4969654083251953,-0.43582141399383545,-0.20613521337509155,-0.8229413032531738,0.30055901408195496,-140.1437530517578,-50.900001525878906,-79.0875015258789,,,,wave hand 2.0
1762364881.008196,5.026644229888916,-5.549654483795166,0.7875075936317444,7.7896647453308105,1.8334455490112305,5.674126148223877,1.8118263483047485,2.592121124267578,-4.739465236663818,-0.39386141300201416,-0.23594927787780762,-0.8464108109474182,0.2697959840297699,-137.78125,-56.56875228881836,-81.70625305175781,,,,wave hand 2.0
1762364881.0227044,4.7753119468688965,4.642465114593506,4.6376776695251465,7.188329696655273,3.070971727371216,5.927322864532471,1.9132299423217773,3.005066156387329,-5.467616558074951,-0.34648504853248596,-0.27900174260139465,-0.8621512055397034,0.24249005317687988,-135.9562530517578,-63.17499923706055,-85.76250457763672,,,,wave hand 2.0
1762364881.0538445,4.151768684387207,16.601091384887695,10.20169448852539,6.896817207336426,4.150844573974609,5.607184410095215,5.198463439941406,2.03623366355896,-4.4719061851501465,-0.31834205985069275,-0.3359600007534027,-0.8542045950889587,0.2369045466184616,-135.9499969482422,-70.0,-85.7249984741211,,,,wave hand 2.0
1762364881.068413,8.124014854431152,28.629133224487305,13.01422119140625,7.1327385902404785,4.634848594665527,4.886547088623047,5.020090579986572,-0.8995845913887024,-0.8433666825294495,-0.32267820835113525,-0.38317006826400757,-0.828181803226471,0.2513453960418701,-136.75,-73.98750305175781,-83.2437515258789,,,,wave hand 2.0
1762364881.0995395,12.85145378112793,25.85610008239746,12.418205261230469,7.598287582397461,4.32846212387085,4.445959568023682,3.489262342453003,-1.9075123071670532,2.0496912002563477,-0.3468102812767029,-0.39130446314811707,-0.8070241808891296,0.27443650364875793,-138.125,-71.3125,-79.76875305175781,,,,wave hand 2.0
1762364881.1128197,6.576526165008545,17.380220413208008,12.90291690826416,8.153217315673828,3.3630523681640625,4.295466423034668,-0.7904596328735352,-1.903847098350525,4.075320243835449,-0.3875414729118347,-0.36177143454551697,-0.7936058044433594,0.2985345423221588,-139.3125,-67.2750015258789,-78.0625,,,,wave hand 2.0
1762364881.1280024,4.119454860687256,5.885961055755615,7.153393268585205,8.655972480773926,2.1176626682281494,4.101921558380127,-2.973691940307617,-2.050454616546631,5.369132995605469,-0.43553975224494934,-0.3181772530078888,-0.778512716293335,0.3209148347377777,-139.19375610351562,-60.306251525878906,-76.4749984741211,,,,wave hand 2.0
1762364881.1585093,3.1847381591796875,-5.446728229522705,-2.2751548290252686,9.007067680358887,1.1086320877075195,3.7255568504333496,-3.226590156555176,-2.299687623977661,4.935418605804443,-0.4812444746494293,-0.28021082282066345,-0.7634637951850891,0.32712194323539734,-139.85000610351562,-53.96875,-71.6937484741211,,,,wave hand 2.0
1762364881.1734126,6.671074867248535,-17.216257095336914,-8.382527351379395,9.198577880859375,0.5199680328369141,3.3692588806152344,-3.751934289932251,-3.0327260494232178,2.276932954788208,-0.5188305974006653,-0.24308249354362488,-0.7606109976768494,0.30528128147125244,-141.52500915527344,-50.181251525878906,-65.4749984741211,,,,wave hand 2.0
1762364881.2042074,11.591201782226562,-17.697378158569336,-6.556180477142334,9.149555206298828,0.6907699108123779,3.470529556274414,-4.483750820159912,-0.7016642689704895,-0.4463042616844177,-0.5175798535346985,-0.23499737679958344,-0.7726125717163086,0.28276699781417847,-141.46875,-51.10000228881836,-68.0250015258789,,,,wave hand 2.0
1762364881.2194836,3.1847381591796875,-7.796085834503174,-5.203773498535156,8.94674301147461,1.3120605945587158,3.8039979934692383,0.33597588539123535,1.479124665260315,-2.726053476333618,-0.4915564954280853,-0.2539459466934204,-0.7877156138420105,0.2709018290042877,-140.86875915527344,-54.06875228881836,-68.9437484741211,,,,wave hand 2.0
1762364881.2329478,2.982475519180298,-7.070812702178955,-2.424757480621338,8.621459007263184,2.1725573539733887,4.14566707611084,2.283414363861084,2.2365975379943848,-3.1206722259521484,-0.4558750092983246,-0.2843940258026123,-0.8029488325119019,0.25801390409469604,-139.30625915527344,-56.88750076293945,-71.46875,,,,wave hand 2.0
1762364881.2629204,6.134899616241455,-2.464252471923828,-0.9574560523033142,8.105494499206543,3.2169547080993652,4.49313497543335,2.0366246700286865,2.633660078048706,-4.429145812988281,-0.4112013578414917,-0.3192265033721924,-0.8200184106826782,0.2378605306148529,-138.15000915527344,-61.806251525878906,-74.3812484741211,,,,wave hand 2.0
1762364881.2779448,5.171459674835205,6.975067138671875,3.1799509525299072,7.546065807342529,4.368075370788574,4.495879650115967,3.141069173812866,2.890223503112793,-4.80543851852417,-0.36402472853660583,-0.37193846702575684,-0.8226402401924133,0.22893431782722473,-135.9812469482422,-71.1937484741211,-78.0562515258789,,,,wave hand 2.0
1762364881.308373,5.686091899871826,19.548858642578125,3.808281421661377,7.35410213470459,5.074434280395508,4.050114631652832,5.081177234649658,1.2677652835845947,-2.848226308822632,-0.3422083854675293,-0.4200780689716339,-0.8070114254951477,0.2348628044128418,-136.58750915527344,-75.16875457763672,-78.0,,,,wave hand 2.0
1762364881.3243065,12.144133567810059,31.277694702148438,8.347820281982422,7.536596298217773,5.146152019500732,3.5990209579467773,5.579643249511719,-0.515961229801178,0.06437908113002777,-0.3443271219730377,-0.44497472047805786,-0.7865042686462402,0.2546515464782715,-137.34375,-74.8499984741211,-75.5250015258789,,,,wave hand 2.0
1762364881.33787,9.702620506286621,18.986352920532227,12.170463562011719,7.89436149597168,4.592678546905518,3.5808467864990234,0.6401867866516113,-0.657681941986084,2.419875383377075,-0.36579203605651855,-0.4285862445831299,-0.7795687317848206,0.27346402406692505,-137.6125030517578,-72.38750457763672,-74.6312484741211,,,,wave hand 2.0
1762364881.3679955,6.121734619140625,10.820449829101562,10.767789840698242,8.346821784973145,3.6143417358398438,3.674671173095703,-2.0696115493774414,-0.7370944619178772,4.022785663604736,-0.40030086040496826,-0.39047038555145264,-0.7746174931526184,0.2953977584838867,-138.91250610351562,-68.5250015258789,-74.21875,,,,wave hand 2.0
1762364881.3823574,5.481435775756836,4.8926005363464355,5.334227085113525,8.76932144165039,2.421736717224121,3.670194149017334,-3.428175687789917,-1.0926179885864258,4.9219794273376465,-0.44273433089256287,-0.34193918108940125,-0.7672173976898193,0.31375396251678467,-138.3937530517578,-59.556251525878906,-73.7437515258789,,,,wave hand 2.0
1762364881.4134133,4.346850395202637,-2.339783191680908,-3.732881784439087,9.079644203186035,1.3338336944580078,3.466564655303955,-4.052480220794678,-1.549545168876648,4.801028251647949,-0.48626917600631714,-0.29471519589424133,-0.7579886317253113,0.3195912837982178,-139.2937469482422,-54.10625076293945,-71.51250457763672,,,,wave hand 2.0
1762364881.4287336,6.328784465789795,-11.397316932678223,-8.074944496154785,9.23870849609375,0.6409749984741211,3.235973834991455,-3.6859610080718994,-2.1836233139038086,2.9647672176361084,-0.5174028873443604,-0.2595416307449341,-0.7524299025535583,0.31429553031921387,-141.0749969482422,-50.525001525878906,-65.88750457763672,,,,wave hand 2.0
1762364881.443368,11.465536117553711,-21.560712814331055,-6.064287185668945,9.18945026397705,0.5176122188568115,3.394434928894043,-4.189313888549805,-0.28016725182533264,1.0356547832489014,-0.5206196904182434,-0.23652955889701843,-0.7648023366928101,0.2967934310436249,-141.7062530517578,-49.70624923706055,-67.03125,,,,wave hand 2.0
1762364881.4876556,4.316929817199707,-10.990398406982422,-3.0961735248565674,9.004246711730957,0.9828476905822754,3.767448902130127,-0.5204572081565857,1.595189094543457,-1.8720637559890747,-0.4966597259044647,-0.2476051300764084,-0.7803664803504944,0.2881823480129242,-141.4187469482422,-51.48125076293945,-69.67500305175781,,,,wave hand 2.0
1762364881.4906514,4.144587993621826,-7.106717586517334,-1.5726215839385986,8.695150375366211,1.7292377948760986,4.200024604797363,1.7409659624099731,2.3746531009674072,-2.5965499877929688,-0.4611057937145233,-0.2707635760307312,-0.7981494665145874,0.27753573656082153,-139.9562530517578,-55.45000076293945,-72.625,,,,wave hand 2.0
1762364881.5188508,6.872140884399414,-3.3367342948913574,-0.2226085364818573,8.163928985595703,2.6981546878814697,4.722958564758301,1.7043139934539795,3.116243600845337,-4.164030075073242,-0.413730263710022,-0.29682594537734985,-0.8214099407196045,0.2569189667701721,-138.1875,-60.69375228881836,-77.2874984741211,,,,wave hand 2.0
1762364881.5340028,4.805232524871826,5.670533657073975,4.812413215637207,7.498940467834473,3.8395464420318604,5.025922775268555,1.8252654075622559,3.5841662883758545,-4.9043989181518555,-0.35998666286468506,-0.3380035161972046,-0.8355421423912048,0.2408996820449829,-136.8249969482422,-67.4437484741211,-80.92500305175781,,,,wave hand 2.0
1762364881.5492177,4.586214542388916,19.321462631225586,7.671616554260254,7.232176303863525,4.718728065490723,4.654605388641357,5.167920112609863,2.4137485027313232,-3.57149076461792,-0.3293900787830353,-0.392765074968338,-0.8215779066085815,0.2494947463274002,-137.46875,-72.7750015258789,-81.20625305175781,,,,wave hand 2.0
1762364881.579212,9.8151216506958,32.55111312866211,10.254354476928711,7.490602493286133,5.043569087982178,3.8326754570007324,7.216762065887451,-0.7896288633346558,0.3465988337993622,-0.3287440538406372,-0.44337570667266846,-0.7860852479934692,0.2782360911369324,-138.1687469482422,-74.32500457763672,-78.16875457763672,,,,wave hand 2.0
1762364881.5935388,12.10344123840332,23.051950454711914,10.500899314880371,7.877484321594238,4.617786407470703,3.585721492767334,3.5100317001342773,-1.029088020324707,2.728973388671875,-0.3471577763557434,-0.4435346722602844,-0.7684229016304016,0.3037841022014618,-139.16250610351562,-70.48750305175781,-75.20000457763672,,,,wave hand 2.0
1762364881.6222396,4.900978088378906,13.551593780517578,13.17698860168457,8.32749080657959,3.626575469970703,3.70634126663208,-1.4196507930755615,-0.7444248199462891,4.013011932373047,-0.3827572166919708,-0.4056977331638336,-0.7632635235786438,0.32609060406684875,-139.9499969482422,-65.8499984741211,-76.1937484741211,,,,wave hand 2.0
1762364881.6384242,4.987149238586426,4.655630111694336,8.071354866027832,8.718002319335938,2.383924722671509,3.814375877380371,-3.997502088546753,-0.9044715166091919,4.9219794273376465,-0.42728015780448914,-0.3507407009601593,-0.7607495784759521,0.34010711312294006,-139.2312469482422,-59.69375228881836,-75.17500305175781,,,,wave hand 2.0
1762364881.6525853,3.841792345046997,-2.830479383468628,-0.9239450693130493,9.037334442138672,1.2470500469207764,3.606595516204834,-5.33651876449585,-1.7462438344955444,4.58600378036499,-0.47566595673561096,-0.29986581206321716,-0.7532476782798767,0.34123337268829346,-138.90000915527344,-54.04999923706055,-73.23125457763672,,,,wave hand 2.0
1762364881.697108,5.323455810546875,-10.25914192199707,-8.295159339904785,9.226203918457031,0.5938007831573486,3.280345916748047,-3.5698964595794678,-2.575798749923706,2.9843149185180664,-0.5082719326019287,-0.27288398146629333,-0.742988646030426,0.3393549919128418,-140.5437469482422,-49.650001525878906,-67.28125,,,,wave hand 2.0
1762364881.701136,12.15729808807373,-24.35887908935547,-7.349671840667725,9.182671546936035,0.4531993865966797,3.4218788146972656,-3.4550538063049316,-0.48786142468452454,1.259231448173523,-0.5129554271697998,-0.24993807077407837,-0.755084753036499,0.3228849470615387,-141.94375610351562,-48.243751525878906,-67.26250457763672,,,,wave hand 2.0
1762364881.7277098,4.057219982147217,-9.694242477416992,-3.3283565044403076,8.990667343139648,0.963998556137085,3.804564952850342,-0.6768386960029602,1.633062720298767,-1.9368155002593994,-0.48762819170951843,-0.2613544762134552,-0.7719753980636597,0.3129962086677551,-141.6999969482422,-50.4375,-70.25,,,,wave hand 2.0
1762364881.743245,2.485795259475708,-6.9511308670043945,-2.5851314067840576,8.672630310058594,1.708181381225586,4.254847049713135,1.7996090650558472,2.460174322128296,-2.809131145477295,-0.45114174485206604,-0.2821495831012726,-0.7910759449005127,0.3017643392086029,-141.3249969482422,-53.01250076293945,-72.07500457763672,,,,wave hand 2.0
1762364881.7582529,5.791412353515625,-5.552048206329346,-0.7827203273773193,8.11457347869873,2.6351253986358643,4.842097759246826,1.4147639274597168,3.1761083602905273,-4.195795059204102,-0.40212640166282654,-0.30249032378196716,-0.8172833919525146,0.2807878255844116,-139.3625030517578,-57.41250228881836,-75.9437484741211,,,,wave hand 2.0
1762364881.7881746,3.505486011505127,3.4336767196655273,5.189411640167236,7.397647380828857,3.803636312484741,5.200314521789551,1.6566665172576904,4.011772155761719,-4.876298904418945,-0.3433394432067871,-0.3421495854854584,-0.8333141803741455,0.2657802999019623,-137.0500030517578,-64.2437515258789,-81.0999984741211,,,,wave hand 2.0
1762364881.815123,2.127946138381958,13.390023231506348,5.724390506744385,7.013949394226074,4.757106781005859,4.940704345703125,6.136752128601074,2.6874160766601562,-3.725428819656372,-0.3055747449398041,-0.3934517800807953,-0.8245499134063721,0.26821112632751465,-137.375,-72.48750305175781,-82.23750305175781,,,,wave hand 2.0
1762364881.8181183,9.728950500488281,30.743913650512695,7.945688247680664,7.093476295471191,5.207688331604004,4.335746765136719,4.61691951751709,0.35757607221603394,-0.8067147731781006,-0.29263779520988464,-0.43974658846855164,-0.7975301146507263,0.2914307117462158,-138.2375030517578,-74.4437484741211,-80.75,,,,wave hand 2.0
1762364881.847677,11.734820365905762,32.66600799560547,13.6257963180542,7.503696441650391,4.795230865478516,4.1153883934021,3.665191411972046,-0.292384535074234,2.502953052520752,-0.31012725830078125,-0.44052961468696594,-0.779603898525238,0.31933140754699707,-138.84375,-72.9937515258789,-79.10625457763672,,,,wave hand 2.0
1762364881.8635995,6.040350914001465,15.023682594299316,13.546806335449219,7.9922380447387695,3.783620595932007,4.2478766441345215,-1.2034045457839966,-0.7786332964897156,4.251249313354492,-0.3450782001018524,-0.40547943115234375,-0.7716706395149231,0.3478964865207672,-139.5124969482422,-67.625,-79.2750015258789,,,,wave hand 2.0
1762364881.8933783,4.752572536468506,5.479042053222656,9.829483032226562,8.411478042602539,2.434248208999634,4.422394752502441,-3.5882225036621094,-0.6491298675537109,5.485197067260742,-0.389289915561676,-0.3507862389087677,-0.7662781476974487,0.3717797100543976,-139.4875030517578,-61.33124923706055,-78.71875,,,,wave hand 2.0
1762364881.9083207,3.4600067138671875,-0.48351529240608215,2.7562766075134277,8.750555038452148,1.044281244277954,4.3096818923950195,-5.409822463989258,-1.1793608665466309,5.213973045349121,-0.4423786401748657,-0.2909356653690338,-0.7590246796607971,0.3788655400276184,-139.2375030517578,-50.993751525878906,-77.125,,,,wave hand 2.0
1762364881.9383109,4.109879970550537,-7.7087178230285645,-7.018152713775635,9.00069808959961,0.09859395027160645,3.9004898071289062,-5.420818328857422,-2.471951723098755,3.8529653549194336,-0.48696619272232056,-0.253105103969574,-0.74591463804245,0.3773765563964844,-140.9187469482422,-46.275001525878906,-72.63750457763672,,,,wave hand 2.0
1762364881.9528847,12.27338981628418,-17.193517684936523,-11.019122123718262,8.99061107635498,-0.40277934074401855,3.904201030731201,-3.137403964996338,-1.267325520515442,2.494400978088379,-0.5022810101509094,-0.22073271870613098,-0.7495863437652588,0.3702852725982666,-142.0124969482422,-43.59375,-70.32500457763672,,,,wave hand 2.0
1762364881.9677434,7.174936294555664,-13.95372486114502,-3.705354928970337,8.843546867370605,-0.1516273021697998,4.2432074546813965,-1.9425514936447144,1.2738739252090454,-0.6063509583473206,-0.484596312046051,-0.221126526594162,-0.7638188004493713,0.3644864559173584,-141.49375915527344,-44.28125,-72.85625457763672,,,,wave hand 2.0
1762364881.9985664,3.6754343509674072,-10.14903450012207,-3.002821445465088,8.581220626831055,0.4847872257232666,4.729033470153809,1.9926424026489258,2.4027528762817383,-1.8683985471725464,-0.44904592633247375,-0.2394295185804367,-0.7812359929084778,0.3615267872810364,-141.9562530517578,-46.0625,-74.38750457763672,,,,wave hand 2.0
1762364882.0135555,6.548999309539795,-8.767903327941895,0.21183714270591736,8.104024887084961,1.3457865715026855,5.361878395080566,1.8264870643615723,3.17855167388916,-3.5360605716705322,-0.4019538164138794,-0.2552386522293091,-0.8095418214797974,0.3434070646762848,-139.5749969482422,-51.40625,-81.11250305175781,,,,wave hand 2.0
1762364882.042595,4.028496265411377,1.8323315382003784,6.2414164543151855,7.382012367248535,2.3274056911468506,6.027037620544434,0.8772025108337402,4.370960712432861,-4.607518196105957,-0.3442685604095459,-0.27256321907043457,-0.8394901752471924,0.32006990909576416,-138.16250610351562,-57.76874923706055,-87.11250305175781,,,,wave hand 2.0
1762364882.0585377,0.9789987802505493,13.279915809631348,15.474883079528809,6.927652359008789,3.616938352584839,5.929713726043701,4.544837474822998,3.912811756134033,-4.694261074066162,-0.2952040433883667,-0.3326057195663452,-0.837073564529419,0.3186470866203308,-137.4187469482422,-64.3375015258789,-88.60625457763672,,,,wave hand 2.0
1762364882.0725439,6.8278584480285645,19.315479278564453,8.866043090820312,6.970358848571777,4.429967880249023,5.293920516967773,5.709146499633789,0.022821923717856407,-1.6521522998809814,-0.2797836363315582,-0.38974153995513916,-0.8141430020332336,0.32709917426109314,-138.1875,-68.09375,-86.73125457763672,,,,wave hand 2.0
1762364882.1149044,12.601318359375,20.43330955505371,9.883339881896973,7.206665992736816,4.680352210998535,4.732272148132324,6.509379863739014,-1.1146091222763062,1.0600894689559937,-0.2752707600593567,-0.4278196692466736,-0.785022497177124,0.3534630537033081,-138.34375,-69.5,-84.01250457763672,,,,wave hand 2.0
1762364882.1189158,5.480238914489746,19.864818572998047,15.939249038696289,7.60941219329834,4.220434188842773,4.529999732971191,2.5864033699035645,-0.867819607257843,2.380779981613159,-0.2976261377334595,-0.424890398979187,-0.768557071685791,0.37444213032722473,-140.1999969482422,-66.0687484741211,-81.60625457763672,,,,wave hand 2.0
1762364882.16275,6.126522064208984,12.225517272949219,11.877242088317871,8.058767318725586,3.1578171253204346,4.617419719696045,-2.2992968559265137,-1.2587733268737793,4.099754810333252,-0.3395139276981354,-0.38650718331336975,-0.7619685530662537,0.393378347158432,-140.8874969482422,-61.087501525878906,-81.5062484741211,,,,wave hand 2.0
1762364882.1657565,4.957228660583496,2.575556755065918,6.285698890686035,8.443540573120117,1.8165419101715088,4.652194499969482,-4.5851545333862305,-1.1378220319747925,4.70939826965332,-0.3914990723133087,-0.3310794234275818,-0.757503867149353,0.40410754084587097,-139.36875915527344,-54.212501525878906,-80.0562515258789,,,,wave hand 2.0
1762364882.1772106,3.7292912006378174,-5.619070053100586,-1.205197811126709,8.779077529907227,0.5941603183746338,4.337151527404785,-6.108652591705322,-1.9270598888397217,4.147402286529541,-0.44823047518730164,-0.2793416976928711,-0.7493398189544678,0.3994339406490326,-140.0500030517578,-48.48749923706055,-77.2874984741211,,,,wave hand 2.0
1762364882.2081945,7.566296577453613,-13.296670913696289,-4.340866565704346,8.980783462524414,-0.1615757942199707,3.9440488815307617,-4.888143539428711,-2.8360273838043213,3.0124146938323975,-0.4864271879196167,-0.2497333437204361,-0.7378422021865845,0.39574071764945984,-140.78750610351562,-44.96875,-73.125,,,,wave hand 2.0
1762364882.222687,10.819252967834473,-15.58020305633545,-4.705896377563477,9.001001358032227,-0.35135817527770996,3.8851819038391113,-2.0366246700286865,-1.0339750051498413,1.355748176574707,-0.49583545327186584,-0.23690862953662872,-0.7392252683639526,0.3893166780471802,-141.13125610351562,-42.98125076293945,-72.55000305175781,,,,wave hand 2.0
1762364882.2527523,5.721996784210205,-6.610037326812744,-4.215200424194336,8.908356666564941,-0.13619136810302734,4.105941295623779,-0.9126327037811279,0.6788911819458008,-0.7810584306716919,-0.4842698872089386,-0.2370852828025818,-0.7506514191627502,0.3818322420120239,-141.8125,-43.6875,-74.07500457763672,,,,wave hand 2.0
1762364882.268048,4.905765533447266,-9.578150749206543,-3.4181180000305176,8.696171760559082,0.37627148628234863,4.524502754211426,0.5534439086914062,1.7747834920883179,-1.828081488609314,-0.4572488069534302,-0.24559491872787476,-0.7697902917861938,0.371523380279541,-141.28750610351562,-45.36249923706055,-75.375,,,,wave hand 2.0
1762364882.2829838,6.340752601623535,-10.183741569519043,-1.353603482246399,8.26874828338623,1.15822434425354,5.1499924659729,0.9065240025520325,3.04904842376709,-3.4859697818756104,-0.4142822027206421,-0.25667762756347656,-0.7989010810852051,0.352482408285141,-140.55625915527344,-49.16875076293945,-78.16875457763672,,,,wave hand 2.0
1762364882.3129249,3.2804837226867676,-1.3141083717346191,1.9484230279922485,7.638799667358398,1.9738538265228271,5.829987525939941,0.7183775305747986,4.1034016609191895,-4.3937153816223145,-0.36413753032684326,-0.26506364345550537,-0.830341637134552,0.3281431198120117,-138.96875,-53.4375,-82.8687515258789,,,,wave hand 2.0
1762364882.3277178,2.0776796340942383,4.9955267906188965,8.778675079345703,7.002638339996338,3.002119302749634,6.179518699645996,0.9822713136672974,3.8663859367370605,-4.45846700668335,-0.31281211972236633,-0.29527685046195984,-0.8475366830825806,0.3108727037906647,-136.5500030517578,-61.91250228881836,-88.3125,,,,wave hand 2.0
1762364882.3582525,3.2409887313842773,12.44214153289795,9.480011940002441,6.676332473754883,4.019802093505859,5.958514213562012,4.95778226852417,2.0631117820739746,-3.4028921127319336,-0.2770041823387146,-0.3457929491996765,-0.841075599193573,0.3103027045726776,-137.27500915527344,-67.1812515258789,-89.11250305175781,,,,wave hand 2.0
1762364882.3743114,7.669222831726074,26.35637092590332,11.20103931427002,6.830543518066406,4.566581726074219,5.359675884246826,5.196019649505615,0.21463361382484436,-0.5977988243103027,-0.2668554186820984,-0.39447951316833496,-0.8143655061721802,0.33163702487945557,-138.00625610351562,-69.9625015258789,-86.9625015258789,,,,wave hand 2.0
1762364882.388248,10.736672401428223,27.844018936157227,13.15664291381836,7.259555816650391,4.328724384307861,4.979668140411377,4.450764179229736,-1.1146091222763062,2.3453497886657715,-0.28296127915382385,-0.40758705139160156,-0.7905264496803284,0.3589897155761719,-138.96875,-69.29375457763672,-84.9000015258789,,,,wave hand 2.0
1762364882.4310768,6.6411542892456055,15.096688270568848,13.10158920288086,7.723773002624512,3.3634934425354004,5.026565074920654,-0.6035348773002625,-1.3161946535110474,4.006903171539307,-0.32008054852485657,-0.37596869468688965,-0.7811954617500305,0.3820074796676636,-139.5625,-64.88750457763672,-84.0625,,,,wave hand 2.0
1762364882.4341173,4.703502655029297,6.467615604400635,9.688258171081543,8.132316589355469,1.9703381061553955,5.120478630065918,-4.320038795471191,-1.1378220319747925,4.880440711975098,-0.3699047565460205,-0.31966841220855713,-0.7757800221443176,0.3989335000514984,-139.53750610351562,-55.51250076293945,-83.2750015258789,,,,wave hand 2.0
1762364882.463194,3.9782297611236572,-0.4631693661212921,2.4403162002563477,8.49302864074707,0.4969329833984375,4.884428977966309,-6.148969650268555,-1.6497271060943604,4.870666980743408,-0.4292491674423218,-0.258444607257843,-0.7662167549133301,0.40232276916503906,-139.60000610351562,-48.72500228881836,-80.96875,,,,wave hand 2.0
1762364882.4781897,5.091272354125977,-9.086257934570312,-3.792722702026367,8.759712219238281,-0.5425379276275635,4.3828325271606445,-6.082995891571045,-2.8421361446380615,3.895725965499878,-0.4781557619571686,-0.219045951962471,-0.7498692274093628,0.40135061740875244,-139.6374969482422,-43.493751525878906,-76.4124984741211,,,,wave hand 2.0
1762364882.493131,10.441058158874512,-18.399911880493164,-7.9145708084106445,8.820816040039062,-0.9937193393707275,4.17634391784668,-2.326174736022949,-1.9722639322280884,2.3758931159973145,-0.4979104995727539,-0.198049396276474,-0.7446622848510742,0.39791929721832275,-141.59375,-40.462501525878906,-72.23125457763672,,,,wave hand 2.0
1762364882.522223,8.588380813598633,-15.821961402893066,-5.198986530303955,8.74505615234375,-0.8121395111083984,4.370417594909668,-2.1306979656219482,0.30504167079925537,-0.3607831299304962,-0.48968619108200073,-0.19353100657463074,-0.758359432220459,0.3842451274394989,-141.25,-40.10625076293945,-73.6812515258789,,,,wave hand 2.0
1762364882.537234,4.259482383728027,-11.211810111999512,-4.4449896812438965,8.527474403381348,-0.22369980812072754,4.84440279006958,0.294437050819397,2.1046507358551025,-2.471933364868164,-0.46104907989501953,-0.20130153000354767,-0.7826959490776062,0.36646753549575806,-141.25,-44.19375228881836,-76.75,,,,wave hand 2.0
1762364882.5672276,4.915339946746826,-12.002908706665039,-0.8916309475898743,8.105530738830566,0.613288402557373,5.4918437004089355,0.3066543638706207,3.19443416595459,-4.1114959716796875,-0.41916510462760925,-0.2106896936893463,-0.816730260848999,0.33594951033592224,-140.41250610351562,-47.73125076293945,-81.2874984741211,,,,wave hand 2.0
1762364882.5832274,2.6557435989379883,-4.246317386627197,1.476875901222229,7.430883884429932,1.5313193798065186,6.218772888183594,0.1368338167667389,4.24512243270874,-5.349108695983887,-0.3673087954521179,-0.21937039494514465,-0.8535674810409546,0.2972935438156128,-138.1437530517578,-53.40625,-85.26875305175781,,,,wave hand 2.0
1762364882.5978277,0.10771380364894867,3.670647144317627,7.0552544593811035,6.6392974853515625,2.6183478832244873,6.730534553527832,0.07941248267889023,4.355078220367432,-5.815809726715088,-0.3118678033351898,-0.24432341754436493,-0.8801223039627075,0.26159000396728516,-135.74375915527344,-60.25625228881836,-90.125,,,,wave hand 2.0
1762364882.642058,-1.084318995475769,14.03869915008545,11.44399356842041,6.08431339263916,3.852658748626709,6.66140079498291,4.670675754547119,3.166334390640259,-4.949603080749512,-0.2679296135902405,-0.297813355922699,-0.8821512460708618,0.24764925241470337,-134.25,-67.13750457763672,-91.45000457763672,,,,wave hand 2.0
1762364882.6450653,1.9472262859344482,31.641529083251953,14.791499137878418,6.124847412109375,4.639130115509033,6.099246978759766,4.273613452911377,0.5164010524749756,-2.0626537799835205,-0.2588428854942322,-0.34947317838668823,-0.8641439080238342,0.2532273530960083,-135.3874969482422,-74.1500015258789,-90.5,,,,wave hand 2.0
1762364882.6730304,14.658652305603027,32.42305374145508,15.400680541992188,6.530244827270508,4.731812477111816,5.585872173309326,5.142263412475586,-1.3858333826065063,1.0099984407424927,-0.27132219076156616,-0.3764057755470276,-0.8410923480987549,0.2779688835144043,-136.1999969482422,-74.0062484741211,-88.09375,,,,wave hand 2.0
1762364882.6880698,8.040237426757812,18.25389862060547,14.88963794708252,7.032599449157715,4.113561630249023,5.464179515838623,1.0885618925094604,-1.5678712129592896,3.4009251594543457,-0.29966825246810913,-0.36290282011032104,-0.828444242477417,0.30361270904541016,-137.21250915527344,-70.9124984741211,-86.79375457763672,,,,wave hand 2.0
1762364882.703027,4.063204288482666,8.906734466552734,11.326704978942871,7.531469821929932,3.0502071380615234,5.496299743652344,-2.1258111000061035,-1.295425295829773,4.457721710205078,-0.3372947573661804,-0.32572174072265625,-0.8192140460014343,0.33019089698791504,-137.88125610351562,-65.76875305175781,-86.0374984741211,,,,wave hand 2.0
1762364882.7330267,3.827430486679077,2.141111135482788,4.843530654907227,7.9634222984313965,1.7764499187469482,5.446488857269287,-3.754377841949463,-1.3858333826065063,4.919536113739014,-0.3816525936126709,-0.27702435851097107,-0.8092978596687317,0.35019394755363464,-138.05625915527344,-59.5,-85.3125,,,,wave hand 2.0
1762364882.7480314,2.1315364837646484,-3.167982578277588,0.6821874380111694,8.31965160369873,0.5838620662689209,5.165133953094482,-4.590041637420654,-1.8354301452636719,4.438174247741699,-0.4278567135334015,-0.23168949782848358,-0.7954789996147156,0.36120879650115967,-138.69375610351562,-50.15625,-82.66875457763672,,,,wave hand 2.0
1762364882.7633219,3.1691794395446777,-8.114439964294434,-1.040036678314209,8.578850746154785,-0.2233901023864746,4.752844333648682,-3.202155590057373,-2.454847574234009,3.636718988418579,-0.4630233943462372,-0.20824138820171356,-0.7762642502784729,0.3737093508243561,-139.71875,-45.775001525878906,-79.48750305175781,,,,wave hand 2.0
1762364882.7928522,5.352179527282715,-12.450518608093262,-3.931553840637207,8.704883575439453,-0.612337589263916,4.481759548187256,-0.7159340977668762,-2.041902542114258,2.6996517181396484,-0.48000097274780273,-0.2029062807559967,-0.7608712315559387,0.3866563141345978,-141.59375,-43.85000228881836,-75.1312484741211,,,,wave hand 2.0
1762364882.8078508,8.765510559082031,-20.032373428344727,-5.316274642944336,8.668584823608398,-0.6157310009002686,4.551112174987793,-0.22479841113090515,-0.5147395133972168,0.8792732954025269,-0.47955694794654846,-0.1950954645872116,-0.7676439881324768,0.37773755192756653,-142.8125,-41.88750076293945,-73.125,,,,wave hand 2.0
1762364882.837843,6.382641315460205,-13.916624069213867,-3.477959156036377,8.471041679382324,-0.1104736328125,4.946247577667236,-0.7367035150527954,1.634284496307373,-2.1909353733062744,-0.4561654031276703,-0.19952648878097534,-0.7899565696716309,0.3578700125217438,-141.9875030517578,-45.556251525878906,-77.20000457763672,,,,wave hand 2.0
1762364882.8528426,3.9267666339874268,-9.857009887695312,-1.5199614763259888,8.104636192321777,0.6064302921295166,5.493925094604492,0.0659734457731247,2.7753806114196777,-3.7486417293548584,-0.4210457503795624,-0.2066492736339569,-0.8196662068367004,0.32888269424438477,-140.74375915527344,-48.89374923706055,-80.34375,,,,wave hand 2.0
1762364882.8678432,3.7843449115753174,-5.537686347961426,0.11968200653791428,7.509576320648193,1.4089841842651367,6.152815818786621,-0.04886922240257263,3.6538050174713135,-4.782225608825684,-0.37541088461875916,-0.2132311463356018,-0.8530101776123047,0.2932111918926239,-138.6687469482422,-53.28750228881836,-85.13750457763672,,,,wave hand 2.0
1762364882.8978505,2.232069492340088,-1.6228879690170288,2.7646543979644775,6.684658527374268,2.21983003616333,6.82816219329834,-0.032986726611852646,4.347747802734375,-5.397977828979492,-0.32199975848197937,-0.21976272761821747,-0.885458767414093,0.2529493570327759,-136.1750030517578,-59.16250228881836,-89.20000457763672,,,,wave hand 2.0
1762364882.9128964,0.5541276931762695,5.164278507232666,8.851680755615234,5.795609474182129,3.1804003715515137,7.24790096282959,-0.0354301854968071,4.41249942779541,-5.489607810974121,-0.26656806468963623,-0.24398274719715118,-0.9058536887168884,0.22100447118282318,-132.47500610351562,-64.83125305175781,-93.98750305175781,,,,wave hand 2.0
1762364882.9428937,-2.500157117843628,18.746990203857422,14.53059196472168,5.38751220703125,4.205556869506836,7.037336349487305,4.7390923500061035,2.846240997314453,-3.6790032386779785,-0.23565174639225006,-0.29289329051971436,-0.9021490812301636,0.21168071031570435,-131.53750610351562,-74.5250015258789,-95.3062515258789,,,,wave hand 2.0
1762364882.9578977,5.214544773101807,33.421199798583984,15.606534004211426,5.534459114074707,4.983888626098633,6.384882926940918,4.532619953155518,-0.32048434019088745,-1.495770812034607,-0.233220636844635,-0.3466711640357971,-0.881289541721344,0.2208075076341629,-131.86875915527344,-77.25,-92.59375,,,,wave hand 2.0
1762364882.9744065,14.28404712677002,29.496826171875,14.86450481414795,5.970042705535889,5.009927749633789,5.957795143127441,4.42144250869751,-1.1207177639007568,1.8077884912490845,-0.24755488336086273,-0.36750146746635437,-0.861602246761322,0.24758991599082947,-133.2624969482422,-76.90625,-90.5,,,,wave hand 2.0
1762364883.003078,6.3383588790893555,21.36682891845703,16.252817153930664,6.549893379211426,4.307964324951172,5.897156238555908,0.4495968222618103,-1.343072772026062,3.6269452571868896,-0.2779596745967865,-0.3495279848575592,-0.8501132130622864,0.2790631949901581,-134.80625915527344,-74.1500015258789,-89.5875015258789,,,,wave hand 2.0
1762364883.0332923,4.632890224456787,10.096373558044434,12.444535255432129,7.131801128387451,3.174152374267578,5.941235065460205,-2.2602014541625977,-1.3357423543930054,5.162660598754883,-0.31718653440475464,-0.3107691705226898,-0.8396838903427124,0.31264379620552063,-136.24375915527344,-67.9375,-88.14375305175781,,,,wave hand 2.0
1762364883.0372891,2.0764827728271484,2.8735649585723877,6.107372760772705,7.63014554977417,1.81650972366333,5.89213752746582,-3.649308919906616,-1.5006760358810425,5.465649604797363,-0.3630011975765228,-0.26060953736305237,-0.8277859091758728,0.3392394185066223,-136.8562469482422,-56.806251525878906,-86.5062484741211,,,,wave hand 2.0
1762364883.0632527,-0.6510701179504395,-3.7903292179107666,0.20824669301509857,8.083473205566406,0.6363747119903564,5.521647930145264,-4.596149921417236,-2.232492446899414,4.973292350769043,-0.4125363230705261,-0.2199641913175583,-0.8102659583091736,0.35341009497642517,-138.28750610351562,-50.98749923706055,-83.4312515258789,,,,wave hand 2.0
1762364883.078247,1.8335282802581787,-12.8765869140625,-4.121848106384277,8.40791130065918,-0.0020203590393066406,5.054021835327148,-2.2455406188964844,-3.2135422229766846,3.2140002250671387,-0.4481896758079529,-0.2037906050682068,-0.7922507524490356,0.3604639768600464,-141.65000915527344,-46.31875228881836,-76.5687484741211,,,,wave hand 2.0
1762364883.109553,8.650615692138672,-25.29000473022461,-4.072778701782227,8.441990852355957,-0.31372761726379395,4.987030982971191,-2.989574432373047,-1.6985963582992554,1.5280121564865112,-0.46209070086479187,-0.17969754338264465,-0.7971415519714355,0.34459590911865234,-143.0812530517578,-44.775001525878906,-75.25,,,,wave hand 2.0
1762364883.1226194,3.6048219203948975,-13.21289348602295,-3.188328742980957,8.286785125732422,0.1391139030456543,5.248424053192139,-0.9773843884468079,1.0735101699829102,-1.8146424293518066,-0.44354039430618286,-0.1891247183084488,-0.8115251064300537,0.330046683549881,-142.50625610351562,-45.85625076293945,-77.0875015258789,,,,wave hand 2.0
1762364883.1522393,3.2589409351348877,-10.735475540161133,-3.779557704925537,7.954442501068115,0.8813581466674805,5.67328405380249,1.3915510177612305,2.019129514694214,-2.8775479793548584,-0.40942618250846863,-0.20787499845027924,-0.831570029258728,0.3124890625476837,-140.71875,-51.67499923706055,-80.9124984741211,,,,wave hand 2.0
1762364883.182364,4.8578925132751465,-6.148064613342285,-2.045365571975708,7.344677925109863,1.7634565830230713,6.259556293487549,1.4074335098266602,3.3752503395080566,-4.225116729736328,-0.36112356185913086,-0.22483377158641815,-0.858715295791626,0.28574055433273315,-138.34375,-54.98749923706055,-84.51875305175781,,,,wave hand 2.0
1762364883.185365,2.244037628173828,0.02872368134558201,2.2679738998413086,6.4925947189331055,2.6717891693115234,6.851558685302734,1.0983357429504395,4.400282382965088,-4.98503303527832,-0.3044060468673706,-0.24108915030956268,-0.8857787251472473,0.25418293476104736,-135.16250610351562,-60.88750076293945,-89.98750305175781,,,,wave hand 2.0
1762364883.2145052,-0.02872368134558201,7.480125427246094,9.365117073059082,5.752338409423828,3.8639702796936035,6.943805694580078,2.4239132404327393,4.10951042175293,-4.722361087799072,-0.2513178884983063,-0.28796643018722534,-0.8925979137420654,0.2391308695077896,-132.72500610351562,-67.5562515258789,-93.11250305175781,,,,wave hand 2.0
1762364883.228462,1.271022915840149,18.11387062072754,8.965378761291504,5.440930366516113,4.82897424697876,6.581291675567627,5.7519073486328125,2.0460076332092285,-2.739492416381836,-0.221481591463089,-0.33986470103263855,-0.8815486431121826,0.24147464334964752,-132.09375,-73.41875457763672,-92.5250015258789,,,,wave hand 2.0
1762364883.2578888,8.680536270141602,36.57960891723633,12.868208885192871,5.561180114746094,5.229417324066162,6.161378383636475,5.507561206817627,0.4748622179031372,-0.008924749679863453,-0.2136177122592926,-0.37460899353027344,-0.8625046014785767,0.2648046016693115,-133.03125,-78.25,-90.63750457763672,,,,wave hand 2.0
1762364883.2729204,10.17775821685791,31.472776412963867,17.212665557861328,5.972163200378418,4.615654945373535,6.266188144683838,0.911410927772522,0.12056036293506622,3.0600621700286865,-0.23303954303264618,-0.3554082214832306,-0.8556298613548279,0.29542359709739685,-133.9562530517578,-73.8187484741211,-90.83125305175781,,,,wave hand 2.0
1762364883.2878358,5.6633524894714355,16.511329650878906,15.273818016052246,6.503159523010254,3.427952766418457,6.495704174041748,-2.973691940307617,-0.5526131391525269,4.677633285522461,-0.2696649730205536,-0.3101695775985718,-0.8499303460121155,0.3296879231929779,-135.21250915527344,-68.2874984741211,-91.58125305175781,,,,wave hand 2.0
1762364883.3188715,2.224888563156128,8.005529403686523,9.446500778198242,7.027190208435059,1.855985164642334,6.588628768920898,-4.81850528717041,-1.0706268548965454,5.796738624572754,-0.3195226788520813,-0.2491855025291443,-0.8405832648277283,0.35948801040649414,-135.5625,-60.41250228881836,-92.3812484741211,,,,wave hand 2.0
1762364883.3338225,-2.1578664779663086,-1.1130425930023193,2.7431116104125977,7.573371410369873,0.40815258026123047,6.222022533416748,-5.793446063995361,-2.2874703407287598,5.524292469024658,-0.37868034839630127,-0.19868233799934387,-0.821905791759491,0.37629434466362,-136.1875,-51.65625,-89.7249984741211,,,,wave hand 2.0
1762364883.3648114,-0.40093472599983215,-14.185908317565918,-1.6935003995895386,8.014293670654297,-0.34146738052368164,5.647177219390869,-3.4355061054229736,-3.9612412452697754,4.044776916503906,-0.42138126492500305,-0.1860382854938507,-0.7959855794906616,0.3927270770072937,-140.6875,-44.53125,-79.85625457763672,,,,wave hand 2.0
1762364883.379813,6.762033462524414,-23.57376480102539,-4.8650736808776855,8.142431259155273,-0.7135696411132812,5.424735069274902,-0.10995574295520782,-2.393760919570923,2.7582948207855225,-0.43909141421318054,-0.17523892223834991,-0.786777138710022,0.3968273401260376,-142.6875,-41.41875076293945,-76.8375015258789,,,,wave hand 2.0
1762364883.393465,7.553131580352783,-17.862539291381836,-4.880632400512695,8.037795066833496,-0.29563426971435547,5.616276264190674,-0.8319984674453735,0.2830505073070526,-0.8519188165664673,-0.423135370016098,-0.18628975749015808,-0.797859251499176,0.3868762254714966,-142.0500030517578,-42.41250228881836,-78.64375305175781,,,,wave hand 2.0
1762364883.4222996,6.109766483306885,-14.19428539276123,-3.505486011505127,7.724396705627441,0.510443925857544,6.025714874267578,1.7580702304840088,1.8541959524154663,-2.9703993797302246,-0.38814976811408997,-0.2054719626903534,-0.8199975490570068,0.36704906821250916,-140.875,-45.84375,-81.6812515258789,,,,wave hand 2.0
1762364883.4376304,4.843530654907227,-7.484912395477295,0.08138376474380493,7.148227691650391,1.4797561168670654,6.5535688400268555,1.7177530527114868,3.248190402984619,-4.587970733642578,-0.34011194109916687,-0.22427429258823395,-0.8484959602355957,0.33775654435157776,-138.99375915527344,-50.19375228881836,-84.88750457763672,,,,wave hand 2.0
1762364883.468295,1.8634488582611084,-0.22021488845348358,5.200182914733887,6.400834083557129,2.4706287384033203,7.011520862579346,1.2107349634170532,3.7735345363616943,-5.4908294677734375,-0.2892002761363983,-0.24289342761039734,-0.8759122490882874,0.3002395033836365,-134.8312530517578,-60.525001525878906,-91.35625457763672,,,,wave hand 2.0
1762364883.4827015,0.10891062766313553,9.167641639709473,11.55051040649414,5.80772066116333,3.6616220474243164,7.0070695877075195,2.453234910964966,2.970857620239258,-5.247704982757568,-0.2454185038805008,-0.2874554991722107,-0.8840301036834717,0.27500906586647034,-133.125,-66.3062515258789,-92.46875,,,,wave hand 2.0
1762364883.4980836,2.9597361087799072,17.592058181762695,9.477618217468262,5.641318321228027,4.492569923400879,6.650447845458984,4.58881950378418,0.8694811463356018,-3.3809008598327637,-0.22826218605041504,-0.330051064491272,-0.8768573999404907,0.2647334933280945,-133.33750915527344,-71.63750457763672,-92.7750015258789,,,,wave hand 2.0
1762364883.527788,8.017498016357422,30.062923431396484,13.1733980178833,5.959717750549316,5.008653163909912,5.969193458557129,4.4092254638671875,-1.4163765907287598,-0.31313565373420715,-0.23378661274909973,-0.37563759088516235,-0.8526178598403931,0.27799832820892334,-134.03125,-75.3375015258789,-90.7125015258789,,,,wave hand 2.0
1762364883.5428894,11.490669250488281,28.21263885498047,14.17034912109375,6.552484512329102,4.6776933670043945,5.60537576675415,2.8991663455963135,-1.7291395664215088,2.678882360458374,-0.262109637260437,-0.38157767057418823,-0.8329810500144958,0.3030504286289215,-135.46875,-73.85625457763672,-87.6624984741211,,,,wave hand 2.0
1762364883.5870838,5.293535232543945,13.95252799987793,11.82458209991455,7.182836532592773,3.7530415058135986,5.527897357940674,-1.1789699792861938,-2.034572124481201,4.176723957061768,-0.30376723408699036,-0.354932963848114,-0.8206220865249634,0.3291313648223877,-137.47500610351562,-68.1500015258789,-85.6937484741211,,,,wave hand 2.0
1762364883.5901031,2.1578664779663086,4.523979663848877,6.256975173950195,7.787493705749512,2.5195441246032715,5.407675743103027,-3.039665460586548,-1.988146424293518,5.231077194213867,-0.35378190875053406,-0.3149885833263397,-0.8060972690582275,0.35472220182418823,-137.7062530517578,-60.03125,-83.8499984741211,,,,wave hand 2.0
1762364883.6023011,1.6779416799545288,-3.1440463066101074,-2.251218557357788,8.301095008850098,1.3347418308258057,5.054345607757568,-3.7079520225524902,-2.449960470199585,5.031935214996338,-0.40752363204956055,-0.2762473225593567,-0.7888737320899963,0.3678182065486908,-138.94375610351562,-53.337501525878906,-80.4749984741211,,,,wave hand 2.0
1762364883.6330216,4.772918224334717,-10.253157615661621,-8.636253356933594,8.643818855285645,0.43676328659057617,4.618412971496582,-3.4623842239379883,-3.384584426879883,3.6550450325012207,-0.4518120288848877,-0.24591213464736938,-0.7729402184486389,0.37142491340637207,-141.3000030517578,-48.243751525878906,-75.7562484741211,,,,wave hand 2.0
1762364883.6480293,13.3936128616333,-20.54581069946289,-9.742115020751953,8.620102882385254,0.08350110054016113,4.682197093963623,-3.676187038421631,-1.178139090538025,1.9812742471694946,-0.46195080876350403,-0.21899168193340302,-0.7801293134689331,0.36061394214630127,-141.74375915527344,-45.65625,-73.7437515258789,,,,wave hand 2.0
1762364883.6796095,5.9469990730285645,-12.841878890991211,-4.488075256347656,8.381399154663086,0.34368085861206055,5.086270809173584,-0.970054030418396,1.7308011054992676,-1.1268081665039062,-0.4403415620326996,-0.21647228300571442,-0.7970556616783142,0.35205307602882385,-142.02500915527344,-48.23125076293945,-76.5687484741211,,,,wave hand 2.0
1762364883.6943295,3.4600067138671875,-11.96700382232666,-2.291910409927368,7.994187831878662,0.8463022708892822,5.62252950668335,0.04153883457183838,2.709407329559326,-2.234917640686035,-0.40719279646873474,-0.21822625398635864,-0.8214650750160217,0.33431482315063477,-140.8562469482422,-49.16250228881836,-80.0562515258789,,,,wave hand 2.0
1762364883.7080276,6.391018867492676,-8.571625709533691,-0.49308985471725464,7.315481185913086,1.5418336391448975,6.3515825271606445,0.024434607475996017,3.8407297134399414,-4.005205154418945,-0.3583478629589081,-0.21876206994056702,-0.855530321598053,0.30298155546188354,-138.43125915527344,-52.41875076293945,-84.78125,,,,wave hand 2.0
1762364883.737702,2.092041492462158,-1.5989515781402588,4.6999125480651855,6.401266098022461,2.2803969383239746,7.075286865234375,-0.4495968222618103,5.045355796813965,-5.203722953796387,-0.3012223541736603,-0.2205653190612793,-0.889007568359375,0.2651066780090332,-135.8312530517578,-58.25625228881836,-89.5562515258789,,,,wave hand 2.0
1762364883.752715,-1.8048046827316284,5.519733905792236,12.114212989807129,5.61314582824707,3.2598066329956055,7.355431079864502,0.846659243106842,4.300100326538086,-5.143857955932617,-0.25127413868904114,-0.24893124401569366,-0.9052122235298157,0.23555345833301544,-132.27500915527344,-63.69375228881836,-92.8187484741211,,,,wave hand 2.0
1762364883.7842395,0.8509390354156494,16.344970703125,14.03510856628418,5.224243640899658,4.137491703033447,7.19892692565918,3.5295794010162354,2.312344789505005,-4.073622226715088,-0.22383509576320648,-0.2880626618862152,-0.904312252998352,0.2216687649488449,-131.35000610351562,-73.8812484741211,-95.3062515258789,,,,wave hand 2.0
1762364883.7991529,4.039267539978027,33.008296966552734,19.698461532592773,5.516328811645508,4.799654960632324,6.53984260559082,3.9376373291015625,-0.5880433320999146,-0.6295638680458069,-0.22840502858161926,-0.338387131690979,-0.8819447755813599,0.2355816662311554,-132.2375030517578,-76.0062484741211,-92.8812484741211,,,,wave hand 2.0
1762364883.8140128,11.4236478805542,28.977407455444336,15.751348495483398,6.11898946762085,4.726754188537598,6.037538528442383,4.393342971801758,-1.9099557399749756,2.4088799953460693,-0.25198104977607727,-0.35886192321777344,-0.8583576679229736,0.26635652780532837,-134.125,-74.34375,-89.9625015258789,,,,wave hand 2.0
1762364883.8432336,5.565213203430176,16.185794830322266,13.466619491577148,6.745759010314941,3.9025235176086426,5.958285331726074,0.25534167885780334,-1.960046648979187,4.19504976272583,-0.2884942591190338,-0.3362838327884674,-0.8459784984588623,0.29665589332580566,-136.08750915527344,-71.01875305175781,-88.9937515258789,,,,wave hand 2.0
1762364883.8581579,3.0518910884857178,8.572821617126465,9.791184425354004,7.321352958679199,2.635132074356079,5.974108695983887,-3.1789426803588867,-1.6802704334259033,5.180986404418945,-0.334118515253067,-0.28961020708084106,-0.8366661667823792,0.3232343792915344,-136.8312530517578,-65.0687484741211,-87.4124984741211,,,,wave hand 2.0
1762364883.9033737,1.346422553062439,0.3015986680984497,2.9250283241271973,7.844548225402832,1.2792751789093018,5.750010967254639,-4.726875305175781,-2.2483749389648438,5.183429718017578,-0.3868352770805359,-0.2393525093793869,-0.8228459358215332,0.3405781388282776,-138.1687469482422,-55.06875228881836,-85.20625305175781,,,,wave hand 2.0
1762364883.9063742,1.1728836297988892,-9.201152801513672,-4.523979663848877,8.280183792114258,0.41299915313720703,5.244434356689453,-4.1025710105896,-3.1768901348114014,4.010568618774414,-0.432279497385025,-0.2140888273715973,-0.8033554553985596,0.34917110204696655,-140.46250915527344,-48.35000228881836,-78.92500305175781,,,,wave hand 2.0
1762364883.918374,7.937310695648193,-21.18132209777832,-7.166558265686035,8.420860290527344,0.022451400756835938,5.032366752624512,-1.4306464195251465,-2.5599162578582764,2.3868887424468994,-0.4508015811443329,-0.2007143646478653,-0.795507550239563,0.35165244340896606,-142.1125030517578,-45.54999923706055,-75.9124984741211,,,,wave hand 2.0
1762364883.9478617,8.064173698425293,-18.464540481567383,-4.9955267906188965,8.280983924865723,0.38020801544189453,5.245650768280029,-0.13072516024112701,0.39667144417762756,-0.4120958149433136,-0.4331159293651581,-0.21224556863307953,-0.8034712076187134,0.3489933907985687,-141.5625,-46.16250228881836,-77.9124984741211,,,,wave hand 2.0
1762364883.9622374,3.167982578277588,-9.690651893615723,-3.987804412841797,7.9844255447387695,1.0468285083770752,5.602607250213623,2.074498414993286,1.9678168296813965,-2.1518399715423584,-0.4017135202884674,-0.23037000000476837,-0.8196547031402588,0.33722710609436035,-141.35000610351562,-48.28125,-78.5562515258789,,,,wave hand 2.0
1762364883.9932451,4.950047969818115,-11.35901927947998,-1.403869867324829,7.456202030181885,1.8548905849456787,6.099225044250488,1.0238101482391357,2.644655466079712,-3.8695931434631348,-0.36043474078178406,-0.24334964156150818,-0.8458775281906128,0.30880263447761536,-139.25625610351562,-55.36249923706055,-82.9312515258789,,,,wave hand 2.0
1762364884.0085597,3.0255610942840576,-7.684781551361084,1.8311346769332886,6.628146171569824,2.609097480773926,6.745102405548096,0.3237585723400116,3.80652117729187,-5.346665382385254,-0.31027624011039734,-0.2448297142982483,-0.879422664642334,0.26533547043800354,-136.78750610351562,-59.51250076293945,-87.0562515258789,,,,wave hand 2.0
1762364884.0238993,-2.0561368465423584,2.7167816162109375,9.207137107849121,5.757786750793457,3.156938076019287,7.288191795349121,-1.4062118530273438,4.082632541656494,-5.890335559844971,-0.26464763283729553,-0.241855651140213,-0.9070110321044922,0.22090382874011993,-133.21250915527344,-64.88750457763672,-92.05000305175781,,,,wave hand 2.0
1762364884.0537388,-3.1416525840759277,15.581399917602539,14.687376022338867,5.215648651123047,3.6405563354492188,7.468565940856934,-0.1258382350206375,2.736285448074341,-4.598966121673584,-0.2376088947057724,-0.2507612109184265,-0.9191778302192688,0.18913786113262177,-130.93125915527344,-70.6624984741211,-95.95000457763672,,,,wave hand 2.0
1762364884.0671604,3.118913173675537,31.754030227661133,17.803895950317383,5.277482509613037,4.161367416381836,7.146139144897461,0.9040805697441101,0.3135937750339508,-2.485372543334961,-0.23718971014022827,-0.28198185563087463,-0.9104059338569641,0.18811821937561035,-130.625,-74.5250015258789,-96.54375457763672,,,,wave hand 2.0
1762364884.0975828,10.67084789276123,32.25789260864258,16.516117095947266,5.777198791503906,4.1887383460998535,6.7316083908081055,3.6028831005096436,-1.420041799545288,1.6489635705947876,-0.2569614350795746,-0.3014490604400635,-0.8924167156219482,0.2160825878381729,-132.66250610351562,-75.9375,-93.5687484741211,,,,wave hand 2.0
1762364884.1143174,5.738752365112305,21.84675407409668,15.648422241210938,6.429586887359619,3.588345527648926,6.482306480407715,1.0103710889816284,-2.109097719192505,3.915273666381836,-0.2899899184703827,-0.292426198720932,-0.8756338357925415,0.2523055672645569,-134.8562469482422,-71.5999984741211,-91.57500457763672,,,,wave hand 2.0
1762364884.129565,3.023167371749878,11.9191312789917,11.78149700164795,7.051546096801758,2.583974838256836,6.311488628387451,-1.0751228332519531,-1.940498948097229,5.513297080993652,-0.3276950418949127,-0.2663259208202362,-0.8572033643722534,0.2947692573070526,-136.41250610351562,-65.625,-90.70625305175781,,,,wave hand 2.0
1762364884.1596568,2.1949679851531982,4.132619857788086,5.2779765129089355,7.573766708374023,1.4175148010253906,6.071640968322754,-1.7336355447769165,-1.9356120824813843,6.067962646484375,-0.3677513003349304,-0.23515349626541138,-0.8342151641845703,0.33696725964546204,-137.41250610351562,-58.72500228881836,-89.2437515258789,,,,wave hand 2.0
1762364884.1747334,1.6683671474456787,-3.850170135498047,-0.4272647500038147,7.949267387390137,0.3945658206939697,5.734943389892578,-1.598023533821106,-2.1139845848083496,5.887146472930908,-0.4038878381252289,-0.21112492680549622,-0.8083114624023438,0.3727378845214844,-138.5437469482422,-51.16875076293945,-85.6187515258789,,,,wave hand 2.0
1762364884.2029867,3.711338996887207,-14.839371681213379,-4.746588230133057,8.160191535949707,-0.31522536277770996,5.4358086585998535,-0.4447098970413208,-2.2801401615142822,4.108306884765625,-0.4317074120044708,-0.1912439912557602,-0.7915816903114319,0.3878825604915619,-142.9562530517578,-44.31875228881836,-75.21875,,,,wave hand 2.0
1762364884.2181952,12.645600318908691,-33.421199798583984,-4.835153102874756,8.09634017944336,-0.5545933246612549,5.511606693267822,-4.466646671295166,-0.7700811624526978,1.249457597732544,-0.43824058771133423,-0.16440017521381378,-0.8042469024658203,0.36620309948921204,-142.13125610351562,-42.25,-76.95625305175781,,,,wave hand 2.0
1762364884.2342014,3.456416368484497,-17.611207962036133,-2.7155847549438477,7.796714782714844,0.017362594604492188,5.953742027282715,-0.789237916469574,2.0679986476898193,-2.7517096996307373,-0.4095803499221802,-0.16967983543872833,-0.828867495059967,0.3412203788757324,-141.99375915527344,-44.431251525878906,-79.7750015258789,,,,wave hand 2.0
1762364884.2648938,0.9837861061096191,-15.197220802307129,-1.7760809659957886,7.299474239349365,0.9260032176971436,6.488165855407715,0.740368664264679,3.1492302417755127,-4.132265090942383,-0.3660041093826294,-0.18801479041576385,-0.8566772937774658,0.3111197352409363,-140.69375610351562,-48.47500228881836,-82.15625,,,,wave hand 2.0
1762364884.2800488,2.7766225337982178,-12.71262264251709,-1.129798173904419,6.459966659545898,2.075089931488037,7.085121154785156,1.7421876192092896,3.9445767402648926,-5.72051477432251,-0.30701953172683716,-0.2112385630607605,-0.8887274861335754,0.26698464155197144,-136.6875,-57.493751525878906,-87.59375,,,,wave hand 2.0
1762364884.3085532,-2.595902681350708,-4.549112796783447,0.2525290250778198,5.268792152404785,2.951507806777954,7.730753421783447,1.1227703094482422,4.930513381958008,-7.219578266143799,-0.2416200488805771,-0.21816426515579224,-0.9219487309455872,0.20984455943107605,-130.93125915527344,-65.375,-93.07500457763672,,,,wave hand 2.0
1762364884.3228452,-9.628417015075684,10.904227256774902,13.086030960083008,4.323602199554443,3.653106212615967,8.012327194213867,-0.5167919993400574,4.821779251098633,-6.5097527503967285,-0.19339680671691895,-0.2328566014766693,-0.9383355975151062,0.16703827679157257,-126.2249984741211,-70.83125305175781,-97.4625015258789,,,,wave hand 2.0
1762364884.3384907,-8.486651420593262,24.84000015258789,18.620126724243164,3.8241851329803467,4.2646284103393555,7.96396017074585,1.8655824661254883,1.6391713619232178,-4.47068452835083,-0.17175893485546112,-0.2541428506374359,-0.942916989326477,0.12968364357948303,-123.7750015258789,-76.1624984741211,-99.66875457763672,,,,wave hand 2.0
1762364884.369199,4.100305557250977,38.22164535522461,15.660390853881836,3.959960460662842,4.805059909820557,7.580647945404053,1.863139033317566,-0.09446420520544052,-2.923973798751831,-0.17620868980884552,-0.2873621881008148,-0.9323657155036926,0.13064312934875488,-124.91875457763672,-80.3375015258789,-100.40625,,,,wave hand 2.0
