timestamp,accel_x,accel_y,accel_z,gravity_x,gravity_y,gravity_z,gyro_x,gyro_y,gyro_z,orient_x,orient_y,orient_z,orient_w,mag_x,mag_y,mag_z,mag_cal_x,mag_cal_y,mag_cal_z,label
1762365249.6938539,-1.104664921760559,-9.584135055541992,3.057875156402588,-1.2119719982147217,-9.315728187561035,2.8256735801696777,-0.15882496535778046,-0.015051720663905144,0.07415292412042618,-0.5965666174888611,-0.009392033331096172,0.11604779213666916,0.7940736413002014,-96.0875015258789,-3.5875000953674316,-50.275001525878906,,,,forward 2.0
1762365249.6968393,-1.046020746231079,-9.582938194274902,3.1213066577911377,-1.212124228477478,-9.317420959472656,2.8200221061706543,-0.12950342893600464,-0.046816714107990265,0.09125714749097824,-0.5967977643013,-0.010022210888564587,0.11684931814670563,0.7937746644020081,-95.82500457763672,-4.012500286102295,-50.306251525878906,,,,forward 2.0
1762365249.7233546,-1.0304620265960693,-9.587725639343262,3.1799509525299072,-1.2104041576385498,-9.317595481872559,2.820185661315918,-0.10506882518529892,-0.07613824307918549,0.1034744530916214,-0.5967748165130615,-0.010930338874459267,0.11791202425956726,0.7936227917671204,-96.5,-3.7437500953674316,-50.51250076293945,,,,forward 2.0
1762365249.7395566,-0.9933606386184692,-9.667912483215332,3.1500303745269775,-1.206764578819275,-9.317346572875977,2.822567939758301,-0.08185594528913498,-0.11034669727087021,0.11569175869226456,-0.5966507196426392,-0.012089891359210014,0.11916575580835342,0.7935119867324829,-95.7562484741211,-3.6000001430511475,-50.16875076293945,,,,forward 2.0
1762365249.7673028,-0.9789987802505493,-9.694242477416992,3.1081416606903076,-1.1999719142913818,-9.316009521484375,2.829866886138916,-0.05742133408784866,-0.13355958461761475,0.1291307955980301,-0.5963097214698792,-0.013450759463012218,0.12046507745981216,0.7935503125190735,-95.86250305175781,-3.612499952316284,-50.118751525878906,,,,forward 2.0
1762365249.7843046,-0.8964182138442993,-9.560198783874512,2.966917037963867,-1.1901670694351196,-9.314693450927734,2.838327407836914,-0.00855211541056633,-0.14455515146255493,0.13279598951339722,-0.5959129333496094,-0.014925455674529076,0.12167266011238098,0.7936376929283142,-95.5562515258789,-3.918750047683716,-50.35625076293945,,,,forward 2.0
1762365249.7995453,-0.7527998089790344,-9.418973922729492,2.8209049701690674,-1.1840999126434326,-9.313122749328613,2.846010208129883,0.03298672288656235,-0.13966822624206543,0.1437915563583374,-0.595551609992981,-0.01617741957306862,0.122897207736969,0.7936956882476807,-95.34375,-4.006249904632568,-50.400001525878906,,,,forward 2.0
1762365249.827703,-0.6498733162879944,-9.448894500732422,2.686861038208008,-1.1844778060913086,-9.313582420349121,2.8443479537963867,0.04886921867728233,-0.12134227156639099,0.15478713810443878,-0.5955987572669983,-0.01703735440969467,0.12405905872583389,0.7934615612030029,-95.2562484741211,-3.762500047683716,-50.868751525878906,,,,forward 2.0
1762365249.8448238,-0.6642351150512695,-9.523097038269043,2.5097317695617676,-1.1935272216796875,-9.316378593444824,2.8313775062561035,0.010995572432875633,-0.08102516829967499,0.15478713810443878,-0.5961461067199707,-0.017292875796556473,0.1250423640012741,0.7928904294967651,-95.3687515258789,-5.050000190734863,-49.962501525878906,,,,forward 2.0
1762365249.8744915,-0.5924259424209595,-9.547033309936523,2.2775485515594482,-1.2043957710266113,-9.320334434509277,2.813699245452881,-0.00488692382350564,-0.017495181411504745,0.14990021288394928,-0.5969100594520569,-0.01698938012123108,0.1253894865512848,0.7922670841217041,-95.26875305175781,-4.068749904632568,-50.22500228881836,,,,forward 2.0
1762365249.8774145,-0.6977460980415344,-9.6499605178833,2.1782124042510986,-1.218536138534546,-9.322588920593262,2.8001108169555664,0.008552111685276031,0.07169114053249359,0.10958310961723328,-0.5975196361541748,-0.015909528359770775,0.12502582371234894,0.7918874621391296,-95.125,-4.456250190734863,-50.4375,,,,forward 2.0
1762365249.9057825,-1.0113129615783691,-9.752886772155762,2.238053560256958,-1.2402949333190918,-9.320693016052246,2.796867847442627,0.07941248267889023,0.15843400359153748,0.07903984189033508,-0.5977077484130859,-0.013912967406213284,0.1241973340511322,0.7919135093688965,-94.98750305175781,-4.387500286102295,-50.6875,,,,forward 2.0
1762365249.935271,-1.2853847742080688,-9.801956176757812,2.3326022624969482,-1.2650729417800903,-9.318175315856934,2.794156074523926,0.12950342893600464,0.22440744936466217,0.054605234414339066,-0.597876787185669,-0.01138869859278202,0.12293311953544617,0.7920234799385071,-94.9000015258789,-4.375,-50.6875,,,,forward 2.0
1762365249.9502816,-1.359587550163269,-9.610465049743652,2.3254213333129883,-1.2902575731277466,-9.315984725952148,2.789944648742676,0.11972958594560623,0.27572014927864075,0.031392358243465424,-0.5981041193008423,-0.008512420579791069,0.12122552841901779,0.792151153087616,-94.875,-4.450000286102295,-50.5,,,,forward 2.0
1762365249.994631,-1.473285436630249,-9.615252494812012,2.346964120864868,-1.3157808780670166,-9.309683799743652,2.799037456512451,0.13805554807186127,0.3184807002544403,-0.004037827719002962,-0.5977544188499451,-0.005215207114815712,0.11910856515169144,0.7927645444869995,-94.7437515258789,-4.268750190734863,-50.63750076293945,,,,forward 2.0
1762365249.9978104,-1.6923035383224487,-9.549427032470703,2.465449333190918,-1.3519355058670044,-9.292086601257324,2.839984893798828,0.27000242471694946,0.36246299743652344,-0.022363785654306412,-0.5960278511047363,-0.0011469031451269984,0.11713723838329315,0.7943729758262634,-94.6812515258789,-4.381249904632568,-49.743751525878906,,,,forward 2.0
1762365250.0098102,-1.7976237535476685,-9.077879905700684,2.533668041229248,-1.3945013284683228,-9.2701997756958,2.8904786109924316,0.38240164518356323,0.363684743642807,-0.0382462814450264,-0.593856930732727,0.003299596719443798,0.11526032537221909,0.7962651252746582,-94.64375305175781,-4.599999904632568,-50.60625076293945,,,,forward 2.0
1762365250.0383143,-1.7700968980789185,-8.360984802246094,2.4474971294403076,-1.447716236114502,-9.254822731018066,2.913496494293213,0.31031954288482666,0.3893410563468933,-0.008924749679863453,-0.5928224921226501,0.008076942525804043,0.11360655725002289,0.797238826751709,-94.9124984741211,-4.28125,-50.993751525878906,,,,forward 2.0
1762365250.054739,-1.6827290058135986,-7.883453845977783,2.2811391353607178,-1.5128445625305176,-9.25407886505127,2.882613182067871,0.10262536257505417,0.4186626076698303,0.04483139142394066,-0.5940581560134888,0.013143304735422134,0.11217627674341202,0.7964538931846619,-94.76875305175781,-5.425000190734863,-50.04999923706055,,,,forward 2.0
1762365250.069486,-1.5594565868377686,-7.684781551361084,2.4415128231048584,-1.5988266468048096,-9.248257637023926,2.854750633239746,-0.14049901068210602,0.45775797963142395,0.14134809374809265,-0.5951002836227417,0.018804090097546577,0.11179427802562714,0.795615553855896,-94.30000305175781,-4.375,-49.69375228881836,,,,forward 2.0
1762365250.1000214,-1.8287410736083984,-8.051008224487305,3.2828774452209473,-1.6962840557098389,-9.23659610748291,2.83620023727417,-0.10751228779554367,0.4259929955005646,0.2952861487865448,-0.5956916213035583,0.02439083345234394,0.11258910596370697,0.7949090003967285,-94.1937484741211,-4.993750095367432,-49.36249923706055,,,,forward 2.0
1762365250.116194,-2.1506855487823486,-8.583593368530273,3.256547451019287,-1.808161973953247,-9.230392456054688,2.7868456840515137,-0.16737708449363708,0.34658050537109375,0.3563726544380188,-0.5975480079650879,0.029921814799308777,0.11451742053031921,0.7930490374565125,-93.92500305175781,-4.75,-49.28750228881836,,,,forward 2.0
1762365250.1446257,-2.443906545639038,-8.939048767089844,3.071040153503418,-1.9280686378479004,-9.231478691101074,2.701569080352783,-0.3677408695220947,0.29160264134407043,0.4027984142303467,-0.6008832454681396,0.0352800115942955,0.1171647310256958,0.789915919303894,-93.61250305175781,-5.431250095367432,-49.29999923706055,,,,forward 2.0
1762365250.1595724,-2.422363758087158,-9.106603622436523,2.9705073833465576,-2.0418283939361572,-9.232606887817383,2.6126651763916016,-0.49357911944389343,0.263502836227417,0.4308982193470001,-0.6043334007263184,0.04022140055894852,0.11984945833683014,0.7866381406784058,-93.0625,-5.28125,-48.20624923706055,,,,forward 2.0
1762365250.1746202,-2.4355287551879883,-9.699029922485352,3.127290725708008,-2.1402604579925537,-9.222777366638184,2.568225383758545,-0.4129449129104614,0.2525072693824768,0.41012880206108093,-0.6058887839317322,0.04472632333636284,0.12210527062416077,0.7848494648933411,-92.45625305175781,-5.506249904632568,-48.04999923706055,,,,forward 2.0
1762365250.206538,-2.3661131858825684,-10.144247055053711,3.1069447994232178,-2.2193503379821777,-9.202387809753418,2.5742297172546387,-0.10506882518529892,0.22685091197490692,0.37958553433418274,-0.6053268313407898,0.04873478412628174,0.12368494272232056,0.7847970724105835,-92.54375457763672,-5.775000095367432,-47.58124923706055,,,,forward 2.0
1762365250.2215283,-2.285926342010498,-9.641582489013672,3.049497604370117,-2.2960081100463867,-9.175177574157715,2.603952407836914,0.059864792972803116,0.22929437458515167,0.35881611704826355,-0.6037350296974182,0.05277058854699135,0.12517277896404266,0.7855259776115417,-91.9749984741211,-5.925000190734863,-47.28750228881836,,,,forward 2.0
1762365250.2493706,-2.2153139114379883,-9.444107055664062,3.0339388847351074,-2.367863655090332,-9.141758918762207,2.656614303588867,0.16371189057826996,0.21952053904533386,0.36370304226875305,-0.6011478900909424,0.056725990027189255,0.12649407982826233,0.7870214581489563,-91.53125,-6.40625,-48.26874923706055,,,,forward 2.0
1762365250.2654963,-2.2057392597198486,-9.246631622314453,2.9597361087799072,-2.4405949115753174,-9.096205711364746,2.7456612586975098,0.32009339332580566,0.21585534512996674,0.377142071723938,-0.5969439148902893,0.06095905974507332,0.12774048745632172,0.7896989583969116,-91.4437484741211,-7.962500095367432,-47.556251525878906,,,,forward 2.0
1762365250.2794344,-2.0968286991119385,-9.239450454711914,2.5312743186950684,-2.5662336349487305,-8.980817794799805,2.9992456436157227,0.7648032903671265,0.2329595685005188,0.49076300859451294,-0.5851497054100037,0.06879746913909912,0.12976142764091492,0.7975141406059265,-91.17500305175781,-6.831250190734863,-48.51250076293945,,,,forward 2.0
1762365250.3093076,-2.044168710708618,-10.474569320678711,2.4199700355529785,-2.7759816646575928,-8.678654670715332,3.6346936225891113,2.5705208778381348,0.3759020268917084,0.8890471458435059,-0.5548224449157715,0.08317176252603531,0.13252103328704834,0.817124605178833,-90.42500305175781,-7.556250095367432,-49.60625076293945,,,,forward 2.0
1762365250.3244822,-2.135127067565918,-9.318441390991211,2.4618587493896484,-3.0207695960998535,-8.174839973449707,4.503671169281006,4.712214469909668,0.4809708595275879,1.1223976612091064,-0.5100247859954834,0.10163567960262299,0.1337670385837555,0.8435942530632019,-89.5,-8.96250057220459,-52.743751525878906,,,,forward 2.0
1762365250.3539362,-2.727552890777588,-7.234777450561523,2.8460381031036377,-3.305856466293335,-7.579570770263672,5.278022766113281,5.403714179992676,0.7082127332687378,1.1077369451522827,-0.4646708071231842,0.12275458872318268,0.1336519867181778,0.8666888475418091,-88.0062484741211,-11.80625057220459,-57.86249923706055,,,,forward 2.0
1762365250.3698642,-3.6526947021484375,-6.389822483062744,3.7496371269226074,-3.6281025409698486,-6.967905521392822,5.875481605529785,4.756196975708008,0.9843237996101379,1.1358367204666138,-0.42357712984085083,0.14532209932804108,0.13322865962982178,0.8841460347175598,-86.6187515258789,-13.756250381469727,-59.28125,,,,forward 2.0
1762365250.398013,-4.266663551330566,-6.971477031707764,5.434760093688965,-3.941620349884033,-6.3401570320129395,6.364130020141602,4.328591346740723,1.146813988685608,1.149275779724121,-0.3841574490070343,0.16749192774295807,0.13125211000442505,0.8984110951423645,-85.48750305175781,-15.49375057220459,-60.81875228881836,,,,forward 2.0
1762365250.4145043,-5.110421657562256,-7.867895126342773,6.854188442230225,-4.2138991355896,-5.717625141143799,6.7666778564453125,4.229630947113037,1.1688051223754883,0.9366946220397949,-0.34638679027557373,0.1874285787343979,0.12748983502388,0.9102928638458252,-84.8062515258789,-17.943750381469727,-62.82500076293945,,,,forward 2.0
1762365250.429051,-5.246859073638916,-6.210299491882324,6.230645179748535,-4.4564080238342285,-5.161629676818848,7.052241802215576,3.7617082595825195,1.0356365442276,0.730222225189209,-0.31389451026916504,0.20500920712947845,0.12352798879146576,0.9187939763069153,-84.29375457763672,-19.65625,-63.63125228881836,,,,forward 2.0
1762365250.4448228,-5.055367946624756,-4.880632400512695,6.858975887298584,-4.649752616882324,-4.746814727783203,7.216900825500488,2.9223792552948,0.9659978747367859,0.548184335231781,-0.2902536392211914,0.2189040333032608,0.11974501609802246,0.9238479137420654,-83.17500305175781,-22.1875,-65.11250305175781,,,,forward 2.0
1762365250.4749823,-5.529308795928955,-4.063204288482666,8.624285697937012,-4.770696640014648,-4.531508445739746,7.276124954223633,1.7556266784667969,0.8010642528533936,0.25619077682495117,-0.27823469042778015,0.22744892537593842,0.11708804219961166,0.9258201122283936,-82.2437515258789,-24.368749618530273,-65.23750305175781,,,,forward 2.0
1762365250.4902236,-5.6777143478393555,-2.9022886753082275,9.442910194396973,-4.8219451904296875,-4.522439002990723,7.247930526733398,0.49357911944389343,0.48830124735832214,0.06437908113002777,-0.2781754732131958,0.23065774142742157,0.11639465391635895,0.9251312017440796,-82.0625,-23.53125,-64.91875457763672,,,,forward 2.0
1762365250.5197637,-4.878238677978516,-4.008150577545166,9.219104766845703,-4.818658351898193,-4.6545305252075195,7.166029930114746,-0.5852088928222656,0.22562918066978455,-0.0785633847117424,-0.2862081527709961,0.22987785935401917,0.11693237721920013,0.9228043556213379,-82.28125,-23.056249618530273,-64.38750457763672,,,,forward 2.0
1762365250.5348954,-4.503633975982666,-5.340210914611816,8.904340744018555,-4.790396213531494,-4.824015140533447,7.072276592254639,-1.0348057746887207,0.07535633444786072,-0.12498914450407028,-0.29643136262893677,0.227301225066185,0.118170827627182,0.9200534224510193,-82.4937515258789,-22.618749618530273,-64.13750457763672,,,,forward 2.0
1762365250.549477,-4.388739109039307,-5.4574995040893555,8.822957038879395,-4.750567436218262,-4.981009483337402,6.989832878112793,-1.0604621171951294,-0.03582113981246948,-0.0883372351527214,-0.30590835213661194,0.2239631563425064,0.11973602324724197,0.9175640940666199,-82.8499984741211,-21.931249618530273,-63.212501525878906,,,,forward 2.0
1762365250.5796015,-4.407888412475586,-5.311487197875977,8.965378761291504,-4.697686195373535,-5.111401081085205,6.931192398071289,-0.940732479095459,-0.12134227156639099,-0.11277183890342712,-0.31353676319122314,0.2200520634651184,0.12092610448598862,0.9157776236534119,-82.5,-22.575000762939453,-62.90625,,,,forward 2.0
1762365250.594712,-4.575443267822266,-5.310290813446045,8.887585639953613,-4.629948616027832,-5.216640949249268,6.898285388946533,-0.7586946487426758,-0.20808513462543488,-0.16041933000087738,-0.3193075954914093,0.21551822125911713,0.12161100655794144,0.9147706627845764,-82.73750305175781,-21.024999618530273,-62.86249923706055,,,,forward 2.0
1762365250.6531632,-4.5826239585876465,-5.307897090911865,8.620695114135742,-4.5487518310546875,-5.2970733642578125,6.891007423400879,-0.5839871764183044,-0.2887193560600281,-0.18607567250728607,-0.32327786087989807,0.21039921045303345,0.12196355313062668,0.9145209193229675,-82.76875305175781,-20.84375,-62.48749923706055,,,,forward 2.0
1762365250.6561637,-4.539538383483887,-5.565213203430176,8.109652519226074,-4.45228910446167,-5.35556697845459,6.9087724685668945,-0.40072759985923767,-0.36080145835876465,-0.20317989587783813,-0.32558247447013855,0.20461426675319672,0.12193523347377777,0.9150196313858032,-83.38750457763672,-20.600000381469727,-62.41250228881836,,,,forward 2.0
1762365250.6601644,-4.383951663970947,-5.834497928619385,7.662042140960693,-4.346087455749512,-5.395063877105713,6.945568084716797,-0.19425514340400696,-0.4182227849960327,-0.18118874728679657,-0.3265033960342407,0.198471799492836,0.12157532572746277,0.9160916805267334,-84.0625,-20.33125114440918,-63.13750076293945,,,,forward 2.0
1762365250.6984808,-4.337275981903076,-5.811758041381836,7.453795433044434,-4.238913536071777,-5.417319297790527,6.99431037902832,-0.04276056960225105,-0.44754430651664734,-0.159197598695755,-0.3263840079307556,0.1923140287399292,0.12135109305381775,0.9174762964248657,-83.76250457763672,-21.037500381469727,-63.08124923706055,,,,forward 2.0
1762365250.700578,-4.2798285484313965,-5.584362506866455,7.152196884155273,-4.156911849975586,-5.440277099609375,7.025636672973633,0.02932152897119522,-0.46831372380256653,-0.12254568189382553,-0.3267577290534973,0.18746718764305115,0.12154646962881088,0.9183201193809509,-83.625,-19.65625,-63.50625228881836,,,,forward 2.0
1762365250.7300498,-4.216397285461426,-5.480238914489746,6.945146560668945,-4.094217777252197,-5.459331512451172,7.047636985778809,0.008552111685276031,-0.4695354700088501,-0.11277183890342712,-0.32727375626564026,0.18353508412837982,0.12234129756689072,0.9188249707221985,-83.9000015258789,-19.787500381469727,-63.75625228881836,,,,forward 2.0
1762365250.7445984,-4.282222270965576,-5.413217067718506,6.824267864227295,-4.024654865264893,-5.504814624786377,7.052324295043945,-0.1160643994808197,-0.47320064902305603,-0.1237674131989479,-0.3293575346469879,0.17910321056842804,0.12315457314252853,0.9188463687896729,-84.4625015258789,-19.55000114440918,-64.25,,,,forward 2.0
1762365250.7594423,-4.188870429992676,-5.695666790008545,6.572935581207275,-3.951709508895874,-5.564064025878906,7.047077178955078,-0.22113321721553802,-0.47197893261909485,-0.12621088325977325,-0.33227115869522095,0.17440654337406158,0.12400990724563599,0.9185858368873596,-85.1312484741211,-19.46875,-64.4937515258789,,,,forward 2.0
1762365250.806554,-4.002166271209717,-5.785428047180176,6.261762619018555,-3.878169536590576,-5.625758171081543,7.03894567489624,-0.2382374405860901,-0.45243123173713684,-0.11521530151367188,-0.33528611063957214,0.16976290941238403,0.12459203600883484,0.9182813167572021,-85.0875015258789,-20.556249618530273,-64.3812484741211,,,,forward 2.0
1762365250.808753,-3.9818203449249268,-6.130112171173096,6.412561893463135,-3.8097128868103027,-5.691908359527588,7.023131370544434,-0.24190263450145721,-0.4133358597755432,-0.1347629874944687,-0.33862558007240295,0.16545379161834717,0.12498558312654495,0.9177888631820679,-85.5374984741211,-18.875,-64.83125305175781,,,,forward 2.0
1762365250.836533,-3.944718837738037,-5.893141746520996,6.449663162231445,-3.7495052814483643,-5.765939712524414,6.995088577270508,-0.2968805134296417,-0.38034912943840027,-0.14087164402008057,-0.3426026701927185,0.16153936088085175,0.12546195089817047,0.9169448018074036,-85.80000305175781,-18.600000381469727,-65.08125305175781,,,,forward 2.0
1762365250.8504736,-3.8250370025634766,-5.878779888153076,6.3239970207214355,-3.69252872467041,-5.852011203765869,6.953798294067383,-0.3799581825733185,-0.3436972200870514,-0.1445368379354477,-0.3473963737487793,0.15777133405208588,0.1258634775876999,0.915741503238678,-85.8812484741211,-18.51875114440918,-65.20625305175781,,,,forward 2.0
1762365250.8646252,-3.682615280151367,-6.016414642333984,6.120537757873535,-3.6401476860046387,-5.944708347320557,6.902599334716797,-0.44226643443107605,-0.29971492290496826,-0.14575856924057007,-0.3526819050312042,0.15427592396736145,0.12612250447273254,0.9142798185348511,-85.9124984741211,-17.931249618530273,-65.5374984741211,,,,forward 2.0
1762365250.8950663,-3.6957802772521973,-6.058303356170654,6.295273303985596,-3.598174571990967,-6.033939838409424,6.846957206726074,-0.46303585171699524,-0.2618412673473358,-0.14209337532520294,-0.35793307423591614,0.15134552121162415,0.12645646929740906,0.9126814007759094,-86.20000457763672,-18.78125,-64.7750015258789,,,,forward 2.0
1762365250.9099793,-3.717323064804077,-6.036760330200195,6.566951751708984,-3.5647668838500977,-6.114013195037842,6.793187141418457,-0.4508185386657715,-0.2374066710472107,-0.118880495429039,-0.3627976179122925,0.14879527688026428,0.12713834643363953,0.9110838174819946,-86.5062484741211,-17.225000381469727,-64.9312515258789,,,,forward 2.0
1762365250.9399614,-3.518651008605957,-5.9876909255981445,6.3323750495910645,-3.5236804485321045,-6.203428745269775,6.733294486999512,-0.4434881806373596,-0.24107186496257782,-0.10421972721815109,-0.3681742250919342,0.14581666886806488,0.12765765190124512,0.9093342423439026,-86.95000457763672,-17.23750114440918,-64.71875,,,,forward 2.0
1762365250.9550674,-3.3355374336242676,-6.1396870613098145,6.242613315582275,-3.47763729095459,-6.3044867515563965,6.6630024909973145,-0.5021312236785889,-0.21785898506641388,-0.10055453330278397,-0.3742523491382599,0.14259248971939087,0.12791281938552856,0.9073262810707092,-86.75,-16.725000381469727,-64.71875,,,,forward 2.0
1762365250.9831314,-3.3032233715057373,-6.322800159454346,6.3790507316589355,-3.432918071746826,-6.401908874511719,6.592931270599365,-0.5644394755363464,-0.161659374833107,-0.10299799591302872,-0.38013848662376404,0.13951195776462555,0.1280175894498825,0.9053411483764648,-86.9375,-16.350000381469727,-64.61250305175781,,,,forward 2.0
1762365251.0124676,-3.469581365585327,-6.404184341430664,6.659106731414795,-3.416327476501465,-6.475640296936035,6.529234409332275,-0.5949827432632446,-0.11645535379648209,-0.10788492113351822,-0.38497886061668396,0.13786464929580688,0.1287662535905838,0.9034400582313538,-86.9375,-16.856250762939453,-63.94375228881836,,,,forward 2.0
1762365251.015743,-3.5162572860717773,-6.411365032196045,6.639957904815674,-3.399784564971924,-6.567653656005859,6.4454240798950195,-0.6438519954681396,-0.09935112297534943,-0.12132395803928375,-0.39105597138404846,0.13624347746372223,0.12920083105564117,0.9010105729103088,-87.01875305175781,-15.631250381469727,-64.0687484741211,,,,forward 2.0
1762365251.0449553,-3.3726389408111572,-6.633973598480225,6.450860023498535,-3.364025592803955,-6.6881303787231445,6.339427947998047,-0.6866125464439392,-0.07125132530927658,-0.1347629874944687,-0.3987399935722351,0.13377565145492554,0.12869995832443237,0.898079514503479,-87.25,-15.168749809265137,-63.15625,,,,forward 2.0
1762365251.059969,-3.318782091140747,-6.794347286224365,6.327587604522705,-3.3335533142089844,-6.7831926345825195,6.253944396972656,-0.6829473376274109,-0.0272690262645483,-0.13842818140983582,-0.40484124422073364,0.13171960413455963,0.12825459241867065,0.8957143425941467,-87.26250457763672,-15.112500190734863,-62.86249923706055,,,,forward 2.0
1762365251.0746655,-3.506682872772217,-6.917619705200195,6.594478607177734,-3.3197438716888428,-6.856719493865967,6.180680274963379,-0.6499606370925903,0.000830775243230164,-0.13720645010471344,-0.4098077416419983,0.13053064048290253,0.12824569642543793,0.8936288356781006,-87.6937484741211,-14.68125057220459,-62.38750076293945,,,,forward 2.0
1762365251.1045778,-3.4252989292144775,-6.878124713897705,6.520275592803955,-3.2976951599121094,-6.926823139190674,6.113954544067383,-0.5962044596672058,-0.022382104769349098,-0.12132395803928375,-0.41445061564445496,0.12888842821121216,0.12823013961315155,0.8917261958122253,-87.25,-15.33750057220459,-62.19375228881836,,,,forward 2.0
1762365251.119498,-3.3008296489715576,-6.930785179138184,6.286895751953125,-3.270918607711792,-7.002666473388672,6.041511535644531,-0.6035348773002625,-0.026047294959425926,-0.11155010759830475,-0.41947129368782043,0.12695537507534027,0.12817612290382385,0.8896611928939819,-87.53125,-13.77500057220459,-61.61249923706055,,,,forward 2.0
1762365251.1511624,-3.2613346576690674,-7.034908294677734,6.160032749176025,-3.2432234287261963,-7.078557014465332,5.967550277709961,-0.6414085030555725,-0.023603834211826324,-0.10055453330278397,-0.4245426654815674,0.12492813169956207,0.12819316983222961,0.8875376582145691,-87.34375,-13.40625,-61.51250076293945,,,,forward 2.0
1762365251.1665664,-3.3092074394226074,-7.235973834991455,6.292880058288574,-3.2276740074157715,-7.13722562789917,5.90578031539917,-0.5998696684837341,-0.026047294959425926,-0.08467204123735428,-0.42863690853118896,0.12354043126106262,0.1285184621810913,0.8857150673866272,-87.51875305175781,-13.393750190734863,-60.5625,,,,forward 2.0
1762365251.1810923,-3.4324798583984375,-7.3305230140686035,6.284502029418945,-3.212617874145508,-7.177524566650391,5.865009307861328,-0.475253164768219,-0.04803844541311264,-0.068789541721344,-0.4314318895339966,0.12221458554267883,0.12898068130016327,0.8844739198684692,-87.75,-12.943750381469727,-61.00625228881836,,,,forward 2.0
1762365251.2097669,-3.264925003051758,-7.355656147003174,6.036760330200195,-3.1830458641052246,-7.228271484375,5.81862735748291,-0.33475416898727417,-0.0700295940041542,-0.04924185574054718,-0.43468809127807617,0.12033351510763168,0.12873485684394836,0.8831723928451538,-87.51250457763672,-14.33750057220459,-60.743751525878906,,,,forward 2.0
1762365251.2247605,-3.2721059322357178,-7.489699840545654,5.927849769592285,-3.1782689094543457,-7.253851890563965,5.78933048248291,-0.18814650177955627,-0.06392093747854233,-0.03213762864470482,-0.4365444481372833,0.11981672048568726,0.12891457974910736,0.8823003768920898,-87.8812484741211,-12.881250381469727,-60.33124923706055,,,,forward 2.0
1762365251.2701373,-3.339128017425537,-7.5291948318481445,5.961360931396484,-3.1947450637817383,-7.234631538391113,5.804293155670166,-0.012217306531965733,-0.0602557510137558,-0.007703019306063652,-0.43549129366874695,0.12046504020690918,0.12975570559501648,0.8826091885566711,-87.6937484741211,-12.893750190734863,-60.15625,,,,forward 2.0
1762365251.2730572,-3.434873580932617,-7.3305230140686035,5.999659061431885,-3.2056632041931152,-7.200803279876709,5.840229034423828,0.1258382350206375,-0.07369478791952133,0.00940120778977871,-0.4332663118839264,0.12088502943515778,0.1305960714817047,0.8835223913192749,-88.0562515258789,-12.818750381469727,-60.618751525878906,,,,forward 2.0
1762365251.2850566,-3.3498992919921875,-7.134244441986084,5.9194722175598145,-3.2201366424560547,-7.174436569213867,5.864664077758789,0.1319468915462494,-0.07858170568943024,0.01062293816357851,-0.43167734146118164,0.12141722440719604,0.1315375566482544,0.884087324142456,-87.88750457763672,-13.08750057220459,-60.98125076293945,,,,forward 2.0
1762365251.3140635,-3.3355374336242676,-7.119882583618164,5.9051103591918945,-3.234882354736328,-7.166604518890381,5.86612606048584,0.04886921867728233,-0.08102516829967499,0.008179477415978909,-0.43146830797195435,0.12185265123844147,0.1324787139892578,0.8839889764785767,-87.6624984741211,-13.612500190734863,-61.125,,,,forward 2.0
1762365251.3295515,-3.311601161956787,-7.2204155921936035,5.816545486450195,-3.2364020347595215,-7.175967693328857,5.853828430175781,-0.00488692382350564,-0.08102516829967499,0.014288129284977913,-0.43225347995758057,0.12164156883955002,0.132969468832016,0.8835606575012207,-87.89375305175781,-12.699999809265137,-60.48749923706055,,,,forward 2.0
1762365251.3596723,-3.3271596431732178,-7.380789279937744,5.8153486251831055,-3.23649263381958,-7.18411111831665,5.843780517578125,0.008552111685276031,-0.07735997438430786,0.014288129284977913,-0.4329131543636322,0.12140042334794998,0.13336783647537231,0.8832107186317444,-88.11250305175781,-12.90625,-60.806251525878906,,,,forward 2.0
1762365251.3747444,-3.2266268730163574,-7.216825008392334,5.803380489349365,-3.2393269538879395,-7.189189910888672,5.835958480834961,0.024434607475996017,-0.06636440008878708,0.02406197413802147,-0.43340158462524414,0.12129969149827957,0.13383929431438446,0.8829135894775391,-88.0999984741211,-12.981249809265137,-61.125,,,,forward 2.0
1762365251.3898149,-3.223036527633667,-7.161771297454834,5.784231185913086,-3.222451686859131,-7.201089859008789,5.830628871917725,0.002443459117785096,-0.05781228840351105,0.021618513390421867,-0.43401002883911133,0.12023932486772537,0.1338709592819214,0.8827551007270813,-87.86250305175781,-12.768750190734863,-61.16875076293945,,,,forward 2.0
1762365251.4198856,-3.1979031562805176,-7.264697551727295,5.784231185913086,-3.2185754776000977,-7.213789463043213,5.817054271697998,-0.003665193449705839,-0.046816714107990265,0.030170626938343048,-0.4349205195903778,0.11982572078704834,0.13409322500228882,0.8823292255401611,-87.59375,-13.53125,-61.525001525878906,,,,forward 2.0
1762365251.4349344,-3.202690362930298,-7.182116985321045,5.763885498046875,-3.2165465354919434,-7.225448131561279,5.803691387176514,0.004886920098215342,-0.04315152391791344,0.033835817128419876,-0.435786634683609,0.11952059715986252,0.1343226581811905,0.8819082975387573,-87.75,-12.55625057220459,-60.71875,,,,forward 2.0
1762365251.46489,-3.2122650146484375,-7.251532554626465,5.7734599113464355,-3.2157909870147705,-7.219349384307861,5.811695098876953,-0.00855211541056633,-0.038264598697423935,0.028948895633220673,-0.43539026379585266,0.11925823986530304,0.13484643399715424,0.8820596933364868,-87.92500305175781,-13.050000190734863,-60.875,,,,forward 2.0
1762365251.4798894,-3.2517600059509277,-7.304193019866943,5.875189781188965,-3.200448513031006,-7.223162651062012,5.815423965454102,-0.02565634250640869,-0.03093421831727028,0.031392358243465424,-0.43544018268585205,0.11827506124973297,0.13500401377677917,0.8821432590484619,-87.86250305175781,-12.96250057220459,-61.16875076293945,,,,forward 2.0
1762365251.4948974,-3.2134618759155273,-7.318554878234863,5.879976749420166,-3.18399977684021,-7.238746166229248,5.805068016052246,-0.02565634250640869,-0.03459940850734711,0.03627927973866463,-0.43632665276527405,0.11723495274782181,0.13499101996421814,0.8818461298942566,-87.73750305175781,-13.168749809265137,-61.22500228881836,,,,forward 2.0
1762365251.525035,-3.2002968788146973,-7.347278118133545,5.848859786987305,-3.1675868034362793,-7.249228477478027,5.800964832305908,-0.0403171069920063,-0.028490755707025528,0.0326140858232975,-0.4368399381637573,0.11621099710464478,0.13501711189746857,0.8817234635353088,-87.4000015258789,-13.18125057220459,-61.88750076293945,,,,forward 2.0
1762365251.5390406,-3.2122650146484375,-7.3915605545043945,5.942211627960205,-3.162022352218628,-7.242158889770508,5.81281852722168,-0.032986726611852646,-0.022382104769349098,0.030170626938343048,-0.4362696707248688,0.11575295776128769,0.1353936642408371,0.8820082545280457,-87.95625305175781,-13.043749809265137,-61.23749923706055,,,,forward 2.0
1762365251.5850332,-3.1979031562805176,-7.331719875335693,6.003249168395996,-3.1516830921173096,-7.234859943389893,5.827503681182861,-0.028099803254008293,-0.01627345196902752,0.025283703580498695,-0.4355807602405548,0.11511243134737015,0.13559086620807648,0.8824021816253662,-87.3687515258789,-12.824999809265137,-61.13125228881836,,,,forward 2.0
1762365251.5880396,-3.1416525840759277,-7.342491149902344,6.017611026763916,-3.1359095573425293,-7.231000900268555,5.8407883644104,-0.02321288175880909,-0.013829990290105343,0.014288129284977913,-0.43503114581108093,0.11424653977155685,0.13556884229183197,0.882789134979248,-87.6187515258789,-13.043749809265137,-60.91250228881836,,,,forward 2.0
1762365251.61404,-3.1584081649780273,-7.334113121032715,5.988887786865234,-3.124331474304199,-7.224282741546631,5.855288505554199,-0.020769421011209488,-0.011386529542505741,0.01062293816357851,-0.4343494474887848,0.11360415816307068,0.13562127947807312,0.8831995725631714,-87.84375,-13.318750381469727,-61.16250228881836,,,,forward 2.0
1762365251.6290405,-3.1524240970611572,-7.341294288635254,6.022398471832275,-3.1166176795959473,-7.213881015777588,5.872199058532715,-0.00977384578436613,-0.004056146834045649,0.011844668537378311,-0.4334656000137329,0.11318559944629669,0.13572019338607788,0.8836722373962402,-87.96875,-13.600000381469727,-60.60625076293945,,,,forward 2.0
1762365251.6440403,-3.1416525840759277,-7.331719875335693,6.036760330200195,-3.1013059616088867,-7.20647668838501,5.889371871948242,0.0036651897244155407,-0.00649960758164525,0.00940120778977871,-0.43265292048454285,0.11242600530385971,0.1355888694524765,0.8841875195503235,-88.40625,-13.106249809265137,-60.95624923706055,,,,forward 2.0
1762365251.6894639,-3.1655890941619873,-7.334113121032715,6.024792194366455,-3.101682186126709,-7.191508769989014,5.907442092895508,0.009773842059075832,-0.004056146834045649,0.00695774657651782,-0.4315869212150574,0.11242718249559402,0.13584022223949432,0.8846696019172668,-87.71875,-13.262499809265137,-61.150001525878906,,,,forward 2.0
1762365251.6924703,-3.1655890941619873,-7.305389404296875,6.054712772369385,-3.1165101528167725,-7.178562164306641,5.91538143157959,0.0061086504720151424,-0.00039095524698495865,0.00695774657651782,-0.4309326410293579,0.11313509941101074,0.13630566000938416,0.8848267793655396,-87.4312515258789,-12.912500381469727,-61.32500076293945,,,,forward 2.0
1762365251.7184706,-3.166785955429077,-7.3029961585998535,5.996068477630615,-3.111574172973633,-7.190199375152588,5.903833389282227,0.004886920098215342,0.000830775243230164,0.00695774657651782,-0.4316750168800354,0.11290586739778519,0.13603439927101135,0.8845358490943909,-87.90625,-13.100000381469727,-61.16250228881836,,,,forward 2.0
1762365251.7344637,-3.166785955429077,-7.335309982299805,5.935030460357666,-3.1131327152252197,-7.196106433868408,5.895809173583984,0.012217302806675434,0.000830775243230164,-0.000372636248357594,-0.43211883306503296,0.11301933228969574,0.13590142130851746,0.8843249678611755,-87.41875457763672,-13.237500190734863,-61.25,,,,forward 2.0
1762365251.7496145,-3.1500303745269775,-7.3233418464660645,6.010430335998535,-3.1100053787231445,-7.184786319732666,5.911245346069336,0.0354301817715168,0.0020525057334452868,0.008179477415978909,-0.4312368631362915,0.11290736496448517,0.13592378795146942,0.8847662806510925,-87.8125,-13.231249809265137,-61.400001525878906,,,,forward 2.0
1762365251.7796142,-3.1655890941619873,-7.250335693359375,5.968541622161865,-3.1190223693847656,-7.189300060272217,5.900997161865234,0.02321287803351879,0.005717697087675333,0.01062293816357851,-0.43172767758369446,0.1133439838886261,0.13602043688297272,0.884456217288971,-87.5625,-13.11875057220459,-60.67499923706055,,,,forward 2.0
1762365251.7945952,-3.173966884613037,-7.334113121032715,5.929046630859375,-3.1215739250183105,-7.203120231628418,5.8827667236328125,-1.862645149230957e-09,0.0020525057334452868,0.0057360162027180195,-0.4327718913555145,0.11346054077148438,0.13588687777519226,0.8839513659477234,-87.875,-13.293749809265137,-61.00625228881836,,,,forward 2.0
1762365251.8096082,-3.1895253658294678,-7.334113121032715,5.862024784088135,-3.120072841644287,-7.217198371887207,5.8662848472595215,-0.003665193449705839,0.0020525057334452868,0.003292555222287774,-0.4337535798549652,0.11341382563114166,0.13561135530471802,0.883518397808075,-87.625,-13.112500190734863,-61.25625228881836,,,,forward 2.0
1762365251.8405442,-3.1440463066101074,-7.380789279937744,5.903913497924805,-3.1308231353759766,-7.220542907714844,5.856433391571045,0.013439033180475235,0.008161158300936222,-0.007703019306063652,-0.43417301774024963,0.1140209212899208,0.13558031618595123,0.8832389712333679,-87.875,-13.050000190734863,-61.54999923706055,,,,forward 2.0
1762365251.8545341,-3.2397918701171875,-7.337703704833984,5.929046630859375,-3.156033992767334,-7.215598106384277,5.848992824554443,0.02076941728591919,0.016713270917534828,-0.008924749679863453,-0.4342637360095978,0.11533088982105255,0.13591736555099487,0.8829724788665771,-87.73750305175781,-13.100000381469727,-60.71875,,,,forward 2.0
1762365251.8847861,-3.2541537284851074,-7.294618129730225,5.889551639556885,-3.1762189865112305,-7.215765476226807,5.837848663330078,0.0036651897244155407,0.013048079796135426,-0.010146480053663254,-0.43464210629463196,0.11636341363191605,0.1361648440361023,0.8826125860214233,-87.58125305175781,-13.356249809265137,-61.10625076293945,,,,forward 2.0
1762365251.900248,-3.230217218399048,-7.269484996795654,5.8775835037231445,-3.193380832672119,-7.210723400115967,5.834715366363525,-0.006108654197305441,0.010604619048535824,-0.010146480053663254,-0.4345889687538147,0.11724473536014557,0.1364402025938034,0.8824796080589294,-87.6500015258789,-13.100000381469727,-61.181251525878906,,,,forward 2.0
1762365251.9157438,-3.2517600059509277,-7.325735569000244,5.9051103591918945,-3.193775177001953,-7.216701030731201,5.827104091644287,-0.012217306531965733,0.011826349422335625,-0.013811672106385231,-0.43501025438308716,0.11733678728342056,0.13621756434440613,0.8822941780090332,-87.5374984741211,-13.21250057220459,-61.125,,,,forward 2.0
1762365251.9463341,-3.2062809467315674,-7.274272441864014,5.881173610687256,-3.1910581588745117,-7.206445217132568,5.8412675857543945,0.0012217286275699735,0.016713270917534828,-0.010146480053663254,-0.4341830909252167,0.11732426285743713,0.1360667645931244,0.8827264308929443,-87.8687515258789,-12.756250381469727,-61.5,,,,forward 2.0
1762365251.9595761,-3.2469727993011475,-7.231186866760254,5.906306743621826,-3.215527057647705,-7.1936564445495605,5.843611717224121,0.0036651897244155407,0.03137403726577759,-0.013811672106385231,-0.4336871802806854,0.11864188313484192,0.13641224801540375,0.8827407360076904,-88.1875,-13.0625,-60.6875,,,,forward 2.0
1762365251.9911122,-3.2900583744049072,-7.241958141326904,5.869205474853516,-3.2307355403900146,-7.189751148223877,5.840028285980225,-0.003665193449705839,0.03992615267634392,-0.004037827719002962,-0.4336601495742798,0.11950729042291641,0.13647790253162384,0.8826271295547485,-87.63750457763672,-12.99375057220459,-61.16875076293945,,,,forward 2.0
1762365252.0060906,-3.2828774452209473,-7.263500690460205,5.944605350494385,-3.244084596633911,-7.173610210418701,5.8524651527404785,-0.00488692382350564,0.04481307417154312,-0.004037827719002962,-0.43271636962890625,0.12027373909950256,0.136694073677063,0.8829527497291565,-87.8062515258789,-13.137499809265137,-61.0625,,,,forward 2.0
1762365252.062454,-3.3163883686065674,-7.245548725128174,5.945802211761475,-3.234992742538452,-7.171252250671387,5.860381126403809,0.0012217286275699735,0.03381749987602234,0.003292555222287774,-0.432341605424881,0.1199437752366066,0.13633589446544647,0.8832364678382874,-87.70625305175781,-13.25,-61.26250076293945,,,,forward 2.0
1762365252.0654633,-3.2733027935028076,-7.276666164398193,5.9386210441589355,-3.235588550567627,-7.162126064300537,5.87120246887207,-0.00977384578436613,0.03748269006609917,0.0008490942418575287,-0.431671142578125,0.1200592964887619,0.136292964220047,0.8835553526878357,-87.5625,-13.09375,-60.73125076293945,,,,forward 2.0
1762365252.0684597,-3.3151915073394775,-7.257516860961914,6.0355634689331055,-3.225399971008301,-7.159153938293457,5.880426406860352,-0.010995576158165932,0.03015230782330036,0.0057360162027180195,-0.4312463402748108,0.1196272000670433,0.13602299988269806,0.8838629126548767,-87.84375,-13.08750057220459,-60.78125,,,,forward 2.0
1762365252.109543,-3.230217218399048,-7.292224407196045,6.0080366134643555,-3.2162065505981445,-7.152795314788818,5.893186092376709,-0.012217306531965733,0.02770884521305561,0.0057360162027180195,-0.43060508370399475,0.11921834945678711,0.13586820662021637,0.884254515171051,-87.51875305175781,-13.24375057220459,-61.306251525878906,,,,forward 2.0
1762365252.1124578,-3.2733027935028076,-7.307783126831055,6.040350914001465,-3.2065467834472656,-7.154479026794434,5.896405220031738,-0.003665193449705839,0.017935002222657204,0.004514285828918219,-0.4305337071418762,0.11878713965415955,0.1355956643819809,0.8843891024589539,-87.5,-13.193750381469727,-60.61249923706055,,,,forward 2.0
1762365252.1269686,-3.2996327877044678,-7.361639976501465,6.091814041137695,-3.2008371353149414,-7.14422082901001,5.911924839019775,-0.00977384578436613,0.014269810169935226,0.003292555222287774,-0.42969077825546265,0.11850948631763458,0.135634183883667,0.8848302960395813,-87.76250457763672,-12.99375057220459,-60.61249923706055,,,,forward 2.0
1762365252.1569188,-1.6683671474456787,-8.927081108093262,3.7496371269226074,-1.665471076965332,-8.91277027130127,3.7449779510498047,0.03176499158143997,-0.032155949622392654,-0.016255132853984833,-0.5553779006004333,0.02607431821525097,0.11419107764959335,0.823307991027832,-94.4937515258789,-4.53125,-53.83124923706055,,,,forward 2.0
1762365252.1588495,-3.2385950088500977,-7.307783126831055,6.065484046936035,-3.1772890090942383,-7.152116775512695,5.915079116821289,-1.862645149230957e-09,0.0032742363400757313,-0.000372636248357594,-0.4298171103000641,0.11736761778593063,0.13510571420192719,0.8850019574165344,-87.4437484741211,-13.28125,-61.20624923706055,,,,forward 2.0
1762365252.1828594,-3.1979031562805176,-7.306586265563965,5.999659061431885,-3.1620090007781982,-7.161806106567383,5.911543846130371,-0.001221732352860272,0.0020525057334452868,0.0008490942418575287,-0.43022552132606506,0.11663661152124405,0.13468101620674133,0.8849650025367737,-87.86250305175781,-13.331250190734863,-60.56875228881836,,,,forward 2.0
1762365252.1862812,-3.2445790767669678,-7.3029961585998535,5.972132205963135,-3.171417236328125,-7.170504093170166,5.895939350128174,0.002443459117785096,0.000830775243230164,-0.0015943667385727167,-0.4310186207294464,0.11711686104536057,0.1346818506717682,0.8845154047012329,-87.71875,-14.231249809265137,-60.75625228881836,,,,forward 2.0
1762365252.231463,-3.264925003051758,-7.304193019866943,5.962557315826416,-3.186581611633301,-7.1750593185424805,5.882204055786133,0.012217302806675434,0.0032742363400757313,-0.004037827719002962,-0.43161678314208984,0.1179000586271286,0.1347936987876892,0.884102463722229,-87.73125457763672,-13.506250381469727,-60.84375,,,,forward 2.0
1762365252.2344444,-3.278090238571167,-7.285043716430664,5.899126052856445,-3.2021782398223877,-7.179172515869141,5.868700981140137,0.024434607475996017,0.0020525057334452868,-0.004037827719002962,-0.432198166847229,0.11868637800216675,0.13495691120624542,0.8836882710456848,-87.96875,-13.293749809265137,-60.82500076293945,,,,forward 2.0
1762365252.2614517,-3.230217218399048,-7.228793144226074,5.811758041381836,-3.2041776180267334,-7.192889213562012,5.8507866859436035,0.007330381311476231,-0.00039095524698495865,0.003292555222287774,-0.4332253932952881,0.11878778785467148,0.13480044901371002,0.8831954002380371,-87.9749984741211,-13.081250190734863,-61.54999923706055,,,,forward 2.0
1762365252.2747772,-3.201493740081787,-7.263500690460205,5.8560404777526855,-3.2010202407836914,-7.206007957458496,5.8363542556762695,-0.014660768210887909,0.005717697087675333,0.003292555222287774,-0.4341104030609131,0.11865302920341492,0.13453172147274017,0.8828198313713074,-87.9312515258789,-12.90000057220459,-60.931251525878906,,,,forward 2.0
1762365252.3048255,-3.264925003051758,-7.2539262771606445,5.882370471954346,-3.226797103881836,-7.203436851501465,5.825322151184082,-0.007330385036766529,0.017935002222657204,0.003292555222287774,-0.43439850211143494,0.11996091902256012,0.13491299748420715,0.8824430704116821,-87.41875457763672,-13.318750381469727,-60.72500228881836,,,,forward 2.0
1762365252.319981,-3.2864677906036377,-7.258713722229004,5.821332931518555,-3.2395896911621094,-7.206761360168457,5.814100742340088,0.0036651897244155407,0.016713270917534828,-0.004037827719002962,-0.4348640441894531,0.12065599858760834,0.13494886457920074,0.882113516330719,-87.5374984741211,-13.106249809265137,-60.993751525878906,,,,forward 2.0
1762365252.334114,-3.2385950088500977,-7.235973834991455,5.826119899749756,-3.23405122756958,-7.2108964920043945,5.812055587768555,-0.00977384578436613,0.01915673166513443,-0.004037827719002962,-0.43504658341407776,0.12042973190546036,0.13470835983753204,0.8820911645889282,-87.6937484741211,-13.05625057220459,-60.53125,,,,forward 2.0
1762365252.366086,-3.2278237342834473,-7.299405574798584,5.847662925720215,-3.2246410846710205,-7.223362922668457,5.80179500579834,-0.018325958400964737,0.020378462970256805,0.003292555222287774,-0.43576276302337646,0.12001096457242966,0.1342984437942505,0.8818572163581848,-87.2874984741211,-12.96875,-61.75625228881836,,,,forward 2.0
1762365252.3957922,-3.2589409351348877,-7.346081733703613,5.895535469055176,-3.244217872619629,-7.213733673095703,5.802860736846924,-0.028099803254008293,0.022821923717856407,0.008179477415978909,-0.4354309141635895,0.12098513543605804,0.1347290426492691,0.8818222880363464,-87.34375,-13.518750190734863,-60.53125,,,,forward 2.0
1762365252.398793,-3.3295533657073975,-7.335309982299805,5.954179763793945,-3.2460758686065674,-7.207130432128906,5.810023307800293,-0.028099803254008293,0.024043655022978783,-0.000372636248357594,-0.4349811375141144,0.12109438329935074,0.1348104327917099,0.8820168375968933,-87.2437515258789,-13.162500381469727,-60.3125,,,,forward 2.0
1762365252.4259367,-3.2326109409332275,-7.235973834991455,5.8919453620910645,-3.2270925045013428,-7.213797092437744,5.812324523925781,-0.047647491097450256,0.02160019427537918,-0.006481288932263851,-0.4350918233394623,0.12020917981863022,0.13430723547935486,0.8821601271629333,-87.5875015258789,-14.375,-60.83124923706055,,,,forward 2.0
1762365252.4398143,-3.215855598449707,-7.293421268463135,5.882370471954346,-3.2199575901031494,-7.2121381759643555,5.818336486816406,-0.05619960278272629,0.02770884521305561,-0.005259558092802763,-0.434824138879776,0.1199028491973877,0.13411933183670044,0.8823623061180115,-87.5062484741211,-13.168749809265137,-60.63750076293945,,,,forward 2.0
1762365252.4851704,-3.2194459438323975,-7.229990005493164,5.846466064453125,-3.207681179046631,-7.214886665344238,5.821709632873535,-0.04886922240257263,0.03259576857089996,0.0020708246156573296,-0.4347749352455139,0.11936309933662415,0.13374853134155273,0.8825160264968872,-87.4437484741211,-12.918749809265137,-61.04375076293945,,,,forward 2.0
1762365252.486161,-3.2062809467315674,-7.218021869659424,5.918275356292725,-3.2284321784973145,-7.206549644470215,5.820564270019531,-0.05497787520289421,0.04236961156129837,0.0020708246156573296,-0.4345446228981018,0.12044146656990051,0.1340867280960083,0.8824316263198853,-87.35625457763672,-13.137499809265137,-60.41875076293945,,,,forward 2.0
1762365252.5148935,-3.366654872894287,-7.386773586273193,5.9745259284973145,-3.259121894836426,-7.203136444091797,5.807673454284668,-0.014660768210887909,0.04236961156129837,0.00695774657651782,-0.4348621368408203,0.12201272696256638,0.13452033698558807,0.881993293762207,-87.64375305175781,-12.956250190734863,-60.15625,,,,forward 2.0
1762365252.5447812,-3.402559518814087,-7.379592418670654,5.879976749420166,-3.287151336669922,-7.197232246398926,5.79918909072876,0.013439033180475235,0.035039227455854416,0.019175050780177116,-0.4349595308303833,0.12342947721481323,0.13499195873737335,0.8816760182380676,-87.4437484741211,-12.831250190734863,-60.375,,,,forward 2.0
1762365252.548152,-3.4408576488494873,-7.319751262664795,5.941014766693115,-3.307187557220459,-7.183545112609863,5.804764747619629,-0.003665193449705839,0.020378462970256805,0.00695774657651782,-0.4343554973602295,0.12440148741006851,0.13553546369075775,0.8817537426948547,-87.5875015258789,-12.99375057220459,-60.368751525878906,,,,forward 2.0
1762365252.5745971,-3.4252989292144775,-7.348474979400635,5.986494064331055,-3.3071274757385254,-7.179830074310303,5.809393405914307,-0.026878071948885918,0.005717697087675333,-0.000372636248357594,-0.43409568071365356,0.12436023354530334,0.13566051423549652,0.881868302822113,-87.64375305175781,-12.949999809265137,-61.03125,,,,forward 2.0
1762365252.5893097,-3.3487024307250977,-7.288634300231934,5.899126052856445,-3.2822461128234863,-7.194688320159912,5.805120468139648,-0.03176499530673027,-0.0052778772078454494,-0.0028160973452031612,-0.43470504879951477,0.1231008842587471,0.13511928915977478,0.8818278908729553,-87.26875305175781,-13.043749809265137,-60.16875076293945,,,,forward 2.0
1762365252.621076,-3.257744073867798,-7.264697551727295,5.865614891052246,-3.2575645446777344,-7.202980995178223,5.808739185333252,-0.03176499530673027,-0.0052778772078454494,-0.0015943667385727167,-0.43484368920326233,0.12185585498809814,0.1346590220928192,0.8820028901100159,-87.0374984741211,-14.03125,-60.337501525878906,,,,forward 2.0
1762365252.6344368,-3.3175852298736572,-7.331719875335693,5.917078495025635,-3.266399383544922,-7.196785926818848,5.811455726623535,-0.013439036905765533,-0.0052778772078454494,0.003292555222287774,-0.43458765745162964,0.12220054119825363,0.1350705772638321,0.8820184469223022,-87.1812515258789,-12.77500057220459,-60.34375,,,,forward 2.0
1762365252.649361,-3.3032233715057373,-7.264697551727295,5.821332931518555,-3.2651822566986084,-7.197198390960693,5.811628818511963,-0.021991150453686714,-0.011386529542505741,0.014288129284977913,-0.43463653326034546,0.12199048697948456,0.13534952700138092,0.8819807171821594,-87.5562515258789,-13.168749809265137,-60.431251525878906,,,,forward 2.0
1762365252.6802058,-3.2541537284851074,-7.1857075691223145,5.840481758117676,-3.268742561340332,-7.212498664855957,5.790621757507324,-0.07941248267889023,-0.01627345196902752,0.014288129284977913,-0.4358930289745331,0.12189572304487228,0.13575464487075806,0.8813112378120422,-87.5875015258789,-13.006250381469727,-61.08124923706055,,,,forward 2.0
1762365252.6942928,-3.214658737182617,-7.139031410217285,5.704044342041016,-3.2534701824188232,-7.236198425292969,5.769616603851318,-0.15760323405265808,-0.026047294959425926,0.00695774657651782,-0.4374333322048187,0.12076413631439209,0.13595320284366608,0.8806729316711426,-87.7125015258789,-12.875,-60.150001525878906,,,,forward 2.0
1762365252.7253559,-3.2266268730163574,-7.195281982421875,5.8009867668151855,-3.2418923377990723,-7.26138973236084,5.744429111480713,-0.26511552929878235,-0.022382104769349098,-0.000372636248357594,-0.43918731808662415,0.1197085827589035,0.13640087842941284,0.8798745274543762,-87.1624984741211,-13.96875,-59.76874923706055,,,,forward 2.0
1762365252.7398276,-3.257744073867798,-7.355656147003174,5.887157917022705,-3.221254825592041,-7.307387351989746,5.697518825531006,-0.30054569244384766,-0.021160373464226723,0.008179477415978909,-0.4423082172870636,0.11819499731063843,0.13643604516983032,0.8785093426704407,-87.01250457763672,-12.856249809265137,-59.76874923706055,,,,forward 2.0
1762365252.7548387,-3.2517600059509277,-7.456189155578613,5.7602949142456055,-3.2256596088409424,-7.3560285568237305,5.632058143615723,-0.31520646810531616,-0.023603834211826324,0.003292555222287774,-0.44614487886428833,0.11788883805274963,0.13688984513282776,0.8765376210212708,-87.26250457763672,-12.768750190734863,-59.48749923706055,,,,forward 2.0
1762365252.7843497,-3.4241020679473877,-7.593823432922363,5.729177474975586,-3.2413439750671387,-7.3961591720581055,5.570156574249268,-0.32620203495025635,-0.013829990290105343,0.004514285828918219,-0.44960078597068787,0.11814044415950775,0.1376289427280426,0.8746201395988464,-87.51250457763672,-12.600000381469727,-60.087501525878906,,,,forward 2.0
1762365252.8001552,-3.407346725463867,-7.6811909675598145,5.6908793449401855,-3.256465196609497,-7.429520606994629,5.516681671142578,-0.27611109614372253,-0.017495181411504745,0.00940120778977871,-0.4525447189807892,0.11843495815992355,0.13830354809761047,0.8729539513587952,-87.3499984741211,-12.606249809265137,-58.67499923706055,,,,forward 2.0
1762365252.8291829,-3.409740447998047,-7.705127716064453,5.670533657073975,-3.2587413787841797,-7.462776184082031,5.470253944396973,-0.22479841113090515,-0.021160373464226723,-0.004037827719002962,-0.4552091658115387,0.1182139441370964,0.1385345458984375,0.87156081199646,-87.13750457763672,-13.5,-59.212501525878906,,,,forward 2.0
1762365252.8450966,-3.3858039379119873,-7.7912983894348145,5.615479469299316,-3.2540555000305176,-7.489859580993652,5.4359211921691895,-0.15271630883216858,-0.026047294959425926,-0.006481288932263851,-0.4572511911392212,0.11773345619440079,0.1385694146156311,0.870550811290741,-87.3187484741211,-12.68125057220459,-58.98749923706055,,,,forward 2.0
1762365252.8602107,-3.3271596431732178,-7.684781551361084,5.535292625427246,-3.2427284717559814,-7.5139875411987305,5.40932559967041,-0.09529498219490051,-0.03704287111759186,-0.008924749679863453,-0.4589192569255829,0.11699771136045456,0.13839493691921234,0.8697996735572815,-87.51250457763672,-12.324999809265137,-59.400001525878906,,,,forward 2.0
1762365252.8902106,-3.3451120853424072,-7.737441539764404,5.4981913566589355,-3.248180389404297,-7.52576208114624,5.389652252197266,-0.06108652800321579,-0.0272690262645483,-0.008924749679863453,-0.4599720537662506,0.11714845895767212,0.13855035603046417,0.8691983819007874,-87.51250457763672,-12.237500190734863,-59.22500228881836,,,,forward 2.0
1762365252.9042084,-3.333143949508667,-7.733851432800293,5.5185370445251465,-3.259434223175049,-7.513407230377197,5.400083541870117,-0.010995576158165932,-0.022382104769349098,-0.005259558092802763,-0.45927464962005615,0.11761453747749329,0.1390705406665802,0.8694210648536682,-87.54375457763672,-12.318750381469727,-59.13125228881836,,,,forward 2.0
1762365252.9343107,-3.2936487197875977,-7.567493438720703,5.481435775756836,-3.2632455825805664,-7.499135971069336,5.417591571807861,0.01466076448559761,-0.021160373464226723,-0.007703019306063652,-0.4582681953907013,0.1177467405796051,0.1394321322441101,0.8698762655258179,-87.34375,-13.33750057220459,-59.61249923706055,,,,forward 2.0
1762365252.9511433,-3.292451858520508,-7.527997970581055,5.473058223724365,-3.2548885345458984,-7.498239040374756,5.42385721206665,-0.003665193449705839,-0.021160373464226723,-0.008924749679863453,-0.4580431282520294,0.11726539582014084,0.13943810760974884,0.8700588345527649,-87.7437515258789,-12.449999809265137,-59.20624923706055,,,,forward 2.0
1762365252.9662085,-3.2828774452209473,-7.567493438720703,5.486223220825195,-3.2539782524108887,-7.502744674682617,5.418169975280762,-0.01710422895848751,-0.019938644021749496,-0.006481288932263851,-0.45838436484336853,0.11716793477535248,0.13946160674095154,0.8698884844779968,-87.75,-12.15625,-58.9375,,,,forward 2.0
1762365252.995193,-3.3343405723571777,-7.597413539886475,5.502978801727295,-3.2635726928710938,-7.4882941246032715,5.432371139526367,0.002443459117785096,-0.01016479916870594,0.0020708246156573296,-0.45748960971832275,0.11757554858922958,0.13994112610816956,0.8702274560928345,-87.41875457763672,-12.381250381469727,-59.67499923706055,,,,forward 2.0
1762365253.0101924,-3.2816805839538574,-7.5567216873168945,5.496994495391846,-3.2669334411621094,-7.476831436157227,5.446122646331787,0.02321287803351879,-0.013829990290105343,0.0057360162027180195,-0.4566963315010071,0.11767891049385071,0.14027227461338043,0.8705767393112183,-87.6937484741211,-12.18125057220459,-58.75,,,,forward 2.0
1762365253.054525,-3.3163883686065674,-7.498077869415283,5.465877056121826,-3.2668867111206055,-7.474948883056641,5.448735237121582,-0.0024434628430753946,-0.012608259916305542,0.003292555222287774,-0.4565794765949249,0.11756645143032074,0.14050744473934174,0.8706153631210327,-87.3375015258789,-13.3125,-59.243751525878906,,,,forward 2.0
1762365253.0576525,-3.2756965160369873,-7.565099716186523,5.475451946258545,-3.2448511123657227,-7.4880852699279785,5.44386100769043,-0.020769421011209488,-0.015051720663905144,0.00940120778977871,-0.45714616775512695,0.11641523987054825,0.1400880515575409,0.870540201663971,-87.3062515258789,-12.487500190734863,-59.0625,,,,forward 2.0
1762365253.0700672,-3.2900583744049072,-7.609382152557373,5.5185370445251465,-3.239774703979492,-7.487838268280029,5.4472246170043945,-0.007330385036766529,-0.013829990290105343,0.015509860590100288,-0.4570452868938446,0.11607453972101212,0.1401805430650711,0.8706238269805908,-87.6624984741211,-11.96250057220459,-58.775001525878906,,,,forward 2.0
1762365253.1003957,-3.249366521835327,-7.5710835456848145,5.479042053222656,-3.220451593399048,-7.501283645629883,5.440178871154785,-0.007330385036766529,-0.01016479916870594,0.016731590032577515,-0.45769163966178894,0.11507033556699753,0.13977651298046112,0.8704825043678284,-87.8499984741211,-12.362500190734863,-59.44375228881836,,,,forward 2.0
1762365253.1154273,-3.2529568672180176,-7.565099716186523,5.482632637023926,-3.2045037746429443,-7.513599395751953,5.4325947761535645,-0.04398230090737343,-0.0052778772078454494,0.008179477415978909,-0.45833444595336914,0.11418791115283966,0.13952836394309998,0.8703002333641052,-87.36250305175781,-12.262499809265137,-59.25625228881836,,,,forward 2.0
1762365253.1597033,-3.1643922328948975,-7.5782647132873535,5.446728229522705,-3.179988384246826,-7.5302653312683105,5.4239182472229,-0.0659734457731247,-0.00649960758164525,0.008179477415978909,-0.4591335654258728,0.1129067987203598,0.13903555274009705,0.8701250553131104,-87.5250015258789,-12.850000381469727,-59.34375,,,,forward 2.0
1762365253.1627846,-3.154817581176758,-7.618956565856934,5.500585079193115,-3.166520118713379,-7.534393310546875,5.426064968109131,-0.06352999061346054,0.005717697087675333,0.00695774657651782,-0.4591994285583496,0.11215195804834366,0.13893163204193115,0.870204508304596,-87.3125,-12.193750381469727,-58.875,,,,forward 2.0
1762365253.1747031,-3.1631953716278076,-7.522014141082764,5.422791481018066,-3.1552953720092773,-7.544151306152344,5.419040203094482,-0.07330383360385895,0.006939427927136421,0.020396782085299492,-0.45975860953330994,0.11145511269569397,0.13888531923294067,0.8700061440467834,-87.40625,-12.018750190734863,-58.38750076293945,,,,forward 2.0
1762365253.2057762,-3.160801649093628,-7.5567216873168945,5.438350200653076,-3.1515228748321533,-7.553555965423584,5.408124923706055,-0.12461651116609573,0.008161158300936222,0.013066398911178112,-0.460459440946579,0.1110568568110466,0.13909398019313812,0.869653046131134,-88.0374984741211,-12.34375,-59.025001525878906,,,,forward 2.0
1762365253.2209587,-3.1847381591796875,-7.595020294189453,5.495797634124756,-3.148299217224121,-7.565401077270508,5.393425464630127,-0.16249015927314758,0.013048079796135426,0.022840242832899094,-0.4613788425922394,0.11061324179172516,0.13941237330436707,0.8691712021827698,-87.0625,-12.100000381469727,-58.775001525878906,,,,forward 2.0
1762365253.2504525,-3.0243642330169678,-7.464566707611084,5.3605570793151855,-3.129194736480713,-7.6089606285095215,5.343029022216797,-0.2590068578720093,0.011826349422335625,0.0008490942418575287,-0.46448206901550293,0.10922811180353165,0.13932086527347565,0.8677069544792175,-87.3125,-12.543749809265137,-58.743751525878906,,,,forward 2.0
1762365253.2657058,-2.8256921768188477,-7.176133155822754,5.334227085113525,-3.1083273887634277,-7.698286533355713,5.225973129272461,-0.6096435189247131,0.02526538446545601,-0.05901569873094559,-0.4712834060192108,0.10738937556743622,0.13922013342380524,0.8642784357070923,-87.33125305175781,-11.74375057220459,-58.3125,,,,forward 2.0
1762365253.2807148,-2.9357995986938477,-7.404725551605225,5.483829498291016,-3.0856757164001465,-7.828576564788818,5.042627811431885,-1.0604621171951294,0.03748269006609917,-0.11765876412391663,-0.4816267192363739,0.10498116165399551,0.13934104144573212,0.8588356971740723,-87.4375,-11.3125,-57.79375076293945,,,,forward 2.0
1762365253.30938,-3.1488335132598877,-7.937310695648193,5.410823345184326,-3.056626319885254,-7.9752516746521,4.825816631317139,-1.3683381080627441,0.006939427927136421,-0.15186721086502075,-0.49361416697502136,0.10188670456409454,0.13968627154827118,0.8523215055465698,-87.95000457763672,-11.331250190734863,-56.556251525878906,,,,forward 2.0
1762365253.324215,-3.2756965160369873,-8.495028495788574,5.212151527404785,-3.0386650562286377,-8.120698928833008,4.588775157928467,-1.4294246435165405,-0.03337767720222473,-0.15064547955989838,-0.5062459707260132,0.09915892034769058,0.14040233194828033,0.8450855612754822,-87.6624984741211,-10.550000190734863,-55.41875076293945,,,,forward 2.0
1762365253.3825195,-3.2206428050994873,-8.618301391601562,4.666401386260986,-3.004754066467285,-8.250650405883789,4.374279975891113,-1.274264931678772,-0.08713381737470627,-0.13842818140983582,-0.5175646543502808,0.09579548239707947,0.14069515466690063,0.8385433554649353,-88.29375457763672,-10.40000057220459,-54.72500228881836,,,,forward 2.0
1762365253.385119,-3.0889925956726074,-8.789446830749512,4.333685398101807,-2.968825340270996,-8.34908390045166,4.208917140960693,-1.0433578491210938,-0.10423804819583893,-0.13598471879959106,-0.5261995792388916,0.0926942452788353,0.14073753356933594,0.8334954977035522,-88.1500015258789,-10.050000190734863,-53.66250228881836,,,,forward 2.0
1762365253.38911,-3.230217218399048,-9.097029685974121,4.291796684265137,-2.94991397857666,-8.406482696533203,4.106720447540283,-0.6976081132888794,-0.11034669727087021,-0.13109779357910156,-0.531441330909729,0.09086889773607254,0.14093968272209167,0.8303306102752686,-88.2750015258789,-9.550000190734863,-53.50625228881836,,,,forward 2.0
1762365253.4149752,-3.353489875793457,-8.909128189086914,4.143391132354736,-2.9475536346435547,-8.426630020141602,4.0669355392456055,-0.32009339332580566,-0.1054597795009613,-0.09688934683799744,-0.5334557294845581,0.09022080153226852,0.1414109319448471,0.8290285468101501,-88.90625,-9.78125,-53.4375,,,,forward 2.0
1762365253.4293687,-3.1727700233459473,-8.570428848266602,3.985410690307617,-2.9308371543884277,-8.44556713104248,4.039639949798584,-0.06841690838336945,-0.0907990112900734,-0.07489819824695587,-0.5349248647689819,0.08922683447599411,0.14110147953033447,0.8282417058944702,-88.4124984741211,-9.731249809265137,-53.41875076293945,,,,forward 2.0
1762365253.4598866,-2.727552890777588,-8.381330490112305,3.7987067699432373,-2.8846921920776367,-8.484646797180176,3.990668773651123,-0.14782939851284027,-0.04315152391791344,-0.10544145852327347,-0.537621259689331,0.0869792178273201,0.13968680799007416,0.8269737958908081,-88.3375015258789,-9.46875,-53.618751525878906,,,,forward 2.0
1762365253.4750314,-2.562391757965088,-8.425613403320312,4.124241828918457,-2.847728729248047,-8.5294828414917,3.921031951904297,-0.394618958234787,0.009382888674736023,-0.1298760622739792,-0.5412220358848572,0.08502928167581558,0.13856378197669983,0.8250144720077515,-88.9124984741211,-9.11875057220459,-52.875,,,,forward 2.0
1762365253.4895132,-2.8891236782073975,-8.820564270019531,4.516798973083496,-2.8160977363586426,-8.575445175170898,3.842843532562256,-0.5448917746543884,0.011826349422335625,-0.15308894217014313,-0.5451887845993042,0.08309993147850037,0.13786903023719788,0.8227124214172363,-89.23125457763672,-8.918749809265137,-52.375,,,,forward 2.0
1762365253.5197363,-3.0327420234680176,-9.152083396911621,4.433021545410156,-2.767418146133423,-8.621806144714355,3.7738537788391113,-0.5204572081565857,-0.05048190429806709,-0.16774971783161163,-0.5488221645355225,0.08029297739267349,0.136933371424675,0.8207293152809143,-89.1312484741211,-8.93125057220459,-52.22500228881836,,,,forward 2.0
1762365253.5347567,-2.7981653213500977,-9.065912246704102,3.8441860675811768,-2.710209369659424,-8.671940803527832,3.6997742652893066,-0.4031710624694824,-0.08835554867982864,-0.18851913511753082,-0.5526793599128723,0.07729129493236542,0.13544690608978271,0.8186731934547424,-88.88750457763672,-9.0,-52.03125,,,,forward 2.0
1762365253.5645947,-2.747898817062378,-9.353148460388184,3.615593433380127,-2.6536645889282227,-8.708852767944336,3.653776168823242,-0.26511552929878235,-0.09202074259519577,-0.22639277577400208,-0.5551633834838867,0.07460889220237732,0.1337605118751526,0.8175178170204163,-89.54375457763672,-8.875,-52.181251525878906,,,,forward 2.0
1762365253.5801904,-2.8125271797180176,-9.422564506530762,3.6179869174957275,-2.5906119346618652,-8.737153053283691,3.631387233734131,-0.08185594528913498,-0.1005728542804718,-0.25204911828041077,-0.5565513968467712,0.07186487317085266,0.13173088431358337,0.81714928150177,-89.7125015258789,-8.46250057220459,-51.85625076293945,,,,forward 2.0
1762365253.5946665,-2.526487112045288,-9.106603622436523,3.538996934890747,-2.5007426738739014,-8.784097671508789,3.58078670501709,-0.0806342139840126,-0.08957727998495102,-0.2960314154624939,-0.5593543648719788,0.06793927401304245,0.1287507861852646,0.8160454630851746,-89.8375015258789,-8.09375,-52.16250228881836,,,,forward 2.0
1762365253.6253035,-1.9939022064208984,-8.518964767456055,3.4612035751342773,-2.3758468627929688,-8.89385986328125,3.389796257019043,-0.5644394755363464,-0.06880786269903183,-0.4084306061267853,-0.5686835646629333,0.06185883283615112,0.12475322932004929,0.8106843829154968,-90.9375,-8.037500381469727,-51.76874923706055,,,,forward 2.0
1762365253.640068,-1.4242159128189087,-8.084519386291504,3.291255235671997,-2.231426239013672,-9.072243690490723,2.9918642044067383,-1.7055357694625854,-0.038264598697423935,-0.5965771079063416,-0.5870171189308167,0.054040513932704926,0.12021125853061676,0.7987739443778992,-90.51875305175781,-7.268750190734863,-50.650001525878906,,,,forward 2.0
1762365253.670925,-1.304533839225769,-9.532671928405762,3.2002968788146973,-2.075596809387207,-9.249897003173828,2.5233726501464844,-2.4776694774627686,-0.0016126857372000813,-0.6430028676986694,-0.6077010631561279,0.045685335993766785,0.1151091679930687,0.7844502329826355,-91.4312515258789,-6.037499904632568,-48.13750076293945,,,,forward 2.0
1762365253.700186,-1.452939510345459,-10.942525863647461,2.9501614570617676,-1.9108470678329468,-9.382853507995605,2.132336139678955,-2.2675318717956543,0.0032742363400757313,-0.6845417022705078,-0.624417245388031,0.037700552493333817,0.10933364927768707,0.7724817991256714,-92.0562515258789,-5.862500190734863,-45.556251525878906,,,,forward 2.0
1762365253.7018883,-1.491237759590149,-10.905424118041992,2.306272268295288,-1.7401976585388184,-9.481390953063965,1.8196253776550293,-1.7104226350784302,0.014269810169935226,-0.7236371040344238,-0.6374432444572449,0.030376380309462547,0.10278201848268509,0.7630066871643066,-92.54375457763672,-5.381249904632568,-44.88125228881836,,,,forward 2.0
1762365253.729611,-0.8533326983451843,-10.6959810256958,1.7282081842422485,-1.5533747673034668,-9.56557559967041,1.52410888671875,-1.4282029867172241,0.06924768537282944,-0.7676193714141846,-0.6494495868682861,0.02310527302324772,0.09508009254932404,0.7540830373764038,-93.4625015258789,-5.206250190734863,-43.73749923706055,,,,forward 2.0
1762365253.773789,-0.3195509612560272,-10.358477592468262,1.7246177196502686,-1.3518528938293457,-9.640908241271973,1.2089166641235352,-1.5051720142364502,0.13888631761074066,-0.867801308631897,-0.6619200706481934,0.015660906210541725,0.08648134022951126,0.744404137134552,-93.67500305175781,-4.962500095367432,-42.61249923706055,,,,forward 2.0
1762365253.777668,-0.7336506843566895,-10.487733840942383,1.8395124673843384,-1.147822380065918,-9.702225685119629,0.8862552642822266,-1.6371188163757324,0.16087746620178223,-0.925222635269165,-0.6743609309196472,0.008145846426486969,0.07788363099098206,0.7342378497123718,-94.8812484741211,-3.950000047683716,-41.21875,,,,forward 2.0
1762365253.7903419,-1.318895697593689,-11.28122615814209,1.1477503776550293,-0.9379396438598633,-9.750964164733887,0.5244865417480469,-1.6774359941482544,0.12422555685043335,-1.0254045724868774,-0.6879444718360901,0.0004205327422823757,0.06904838979244232,0.7224711775779724,-96.1312484741211,-3.9125001430511475,-39.51250076293945,,,,forward 2.0
1762365253.8054547,-1.214772343635559,-12.02086067199707,-0.6462828516960144,-0.6903983354568481,-9.784769058227539,0.13316822052001953,-1.7482963800430298,0.14010804891586304,-1.1402472257614136,-0.7022423148155212,-0.008267402648925781,0.05846143886446953,0.7094854116439819,-96.9625015258789,-3.3500001430511475,-38.118751525878906,,,,forward 2.0
1762365253.8354137,-0.34588098526000977,-11.844927787780762,-1.053201675415039,-0.4281609058380127,-9.797951698303223,-0.23005104064941406,-1.7898352146148682,0.25006380677223206,-1.2208813428878784,-0.7151584625244141,-0.01654442399740219,0.04664362221956253,0.697208046913147,-98.2874984741211,-3.387500047683716,-36.962501525878906,,,,forward 2.0
1762365253.8496788,-0.7264697551727295,-11.97179126739502,-0.24175764620304108,-0.15628549456596375,-9.796280860900879,-0.4945411682128906,-1.4917329549789429,0.30626338720321655,-1.3516066074371338,-0.7242881655693054,-0.02475161664187908,0.034515801817178726,0.6881880164146423,-98.96875,-3.0062501430511475,-35.525001525878906,,,,forward 2.0
1762365253.8796778,-0.38896653056144714,-11.434418678283691,-0.27646544575691223,0.16728797554969788,-9.781466484069824,-0.7287406921386719,-1.207069754600525,0.3282545506954193,-1.4542319774627686,-0.7320933938026428,-0.03438033163547516,0.020288916304707527,0.6800336241722107,-101.20000457763672,-2.331249952316284,-34.493751525878906,,,,forward 2.0
1762365253.8946779,0.7432252764701843,-10.92337703704834,-0.8353803753852844,0.5475186109542847,-9.734099388122559,-1.0879573822021484,-1.3439035415649414,0.37712377309799194,-1.5935091972351074,-0.7438822388648987,-0.045723654329776764,0.0034675525967031717,0.6667357683181763,-102.64375305175781,-2.0,-32.8125,,,,forward 2.0
1762365253.9216843,1.8071982860565186,-10.329753875732422,-2.2284789085388184,0.9757672548294067,-9.616863250732422,-1.6732988357543945,-2.230879783630371,0.4663100838661194,-1.8402987718582153,-0.762840986251831,-0.05795677378773689,-0.016283903270959854,0.6437774896621704,-103.30000305175781,-1.8625000715255737,-31.006250381469727,,,,forward 2.0
1762365253.9396775,2.3912465572357178,-10.59185791015625,-1.6085261106491089,1.4308505058288574,-9.377243995666504,-2.501215934753418,-3.621209144592285,0.5591616034507751,-1.9759107828140259,-0.7890112400054932,-0.07031522691249847,-0.038143593817949295,0.6091487407684326,-105.25,-2.6937501430511475,-28.61250114440918,,,,forward 2.0
1762365253.9687643,4.368393421173096,-12.341608047485352,-2.0573337078094482,1.9520153999328613,-8.937237739562988,-3.542814254760742,-4.990768909454346,0.557939887046814,-2.1946005821228027,-0.8205791115760803,-0.08497961610555649,-0.063080333173275,0.5616487860679626,-106.83125305175781,-4.118750095367432,-24.356250762939453,,,,forward 2.0
1762365253.971758,4.375574111938477,-14.415698051452637,-6.614824295043945,2.47855806350708,-8.331446647644043,-4.547513961791992,-5.892405986785889,0.6190264225006104,-2.5256896018981934,-0.849830687046051,-0.09781255573034286,-0.08994834870100021,0.5100292563438416,-109.41875457763672,-7.175000190734863,-18.037500381469727,,,,forward 2.0
1762365253.9997575,2.884336233139038,-15.63525676727295,-10.225630760192871,3.04036283493042,-7.745896339416504,-5.195516586303711,-5.090950965881348,1.1578094959259033,-2.4707117080688477,-0.8678767085075378,-0.10769013315439224,-0.12025600671768188,0.4698205292224884,-111.76875305175781,-10.987500190734863,-15.393750190734863,,,,forward 2.0
1762365254.028762,1.9687689542770386,-13.684440612792969,-11.91314697265625,3.6934354305267334,-7.257477283477783,-5.47025203704834,-3.3426547050476074,1.9458256959915161,-2.5427937507629395,-0.8747681379318237,-0.11657899618148804,-0.1560726910829544,0.44365671277046204,-114.76250457763672,-11.40000057220459,-14.199999809265137,,,,forward 2.0
1762365254.044758,0.26689088344573975,-14.135642051696777,-12.372725486755371,4.421476364135742,-6.8923563957214355,-5.402045249938965,-1.947438359260559,2.728955030441284,-2.7077274322509766,-0.8716081380844116,-0.12503142654895782,-0.1966884285211563,0.431254118680954,-117.82500457763672,-12.71250057220459,-13.03125,,,,forward 2.0
1762365254.0597582,0.008377740159630775,-12.24586296081543,-11.404498100280762,5.203377723693848,-6.577164649963379,-5.089390754699707,-0.5644394755363464,3.345928907394409,-2.837230920791626,-0.8610863089561462,-0.13389720022678375,-0.2416134774684906,0.4268781542778015,-121.3499984741211,-14.231249809265137,-12.943750381469727,,,,forward 2.0
1762365254.0888515,-1.0998775959014893,-10.166986465454102,-10.747444152832031,6.003442287445068,-6.220632553100586,-4.636653900146484,-0.12339477986097336,3.8639426231384277,-2.974064588546753,-0.8462814688682556,-0.14188186824321747,-0.29058679938316345,0.42336344718933105,-128.25625610351562,-14.46250057220459,-14.137499809265137,,,,forward 2.0
1762365254.10504,-1.500812292098999,-8.064173698425293,-9.073092460632324,6.750103950500488,-5.878534317016602,-4.014354705810547,0.02076941728591919,4.312317848205566,-2.967956066131592,-0.8262313604354858,-0.14814499020576477,-0.34043338894844055,0.42367425560951233,-133.16250610351562,-15.262499809265137,-14.8125,,,,forward 2.0
1762365254.1339667,-1.4313968420028687,-5.8225297927856445,-5.161884784698486,7.387923240661621,-5.587080478668213,-3.2309789657592773,0.8038986325263977,4.471142768859863,-2.7517096996307373,-0.800372838973999,-0.15518100559711456,-0.386940598487854,0.43081218004226685,-137.63125610351562,-15.46875,-17.024999618530273,,,,forward 2.0
1762365254.1489692,-1.036446213722229,-4.058416843414307,-2.4415128231048584,7.92191219329834,-5.265225887298584,-2.399338722229004,1.5076154470443726,4.291548252105713,-2.619762897491455,-0.7715432643890381,-0.16435156762599945,-0.4297325015068054,0.43936270475387573,-141.5,-16.100000381469727,-19.325000762939453,,,,forward 2.0
1762365254.1639698,-0.47753119468688965,-3.634742498397827,-1.8203632831573486,8.366931915283203,-4.849159240722656,-1.648092269897461,1.4795156717300415,3.9531288146972656,-2.7834746837615967,-0.7439717054367065,-0.17466174066066742,-0.46934494376182556,0.44239652156829834,-145.2937469482422,-16.712499618530273,-22.256250381469727,,,,forward 2.0
1762365254.194967,-0.7623744010925293,-1.266235589981079,-0.4152965545654297,8.70966625213623,-4.39557409286499,-1.027989387512207,0.7110471725463867,3.4082372188568115,-2.8726611137390137,-0.7208358645439148,-0.1810818314552307,-0.5058392882347107,0.4378717541694641,-150.3249969482422,-18.543750762939453,-25.850000381469727,,,,forward 2.0
1762365254.2099648,-0.6989428997039795,-2.4068050384521484,0.8868436813354492,8.953203201293945,-3.9766805171966553,-0.5121269226074219,0.04764748737215996,3.077148199081421,-2.452385663986206,-0.7014720439910889,-0.18449725210666656,-0.537363588809967,0.4302767813205719,-153.0625,-20.043750762939453,-26.700000762939453,,,,forward 2.0
1762365254.2249658,0.09694242477416992,-1.7844587564468384,2.934602737426758,9.108611106872559,-3.640995979309082,-0.11159896850585938,-0.3017674386501312,2.5017130374908447,-2.0577666759490967,-0.6866320967674255,-0.18499824404716492,-0.5624786019325256,0.42181727290153503,-154.65625,-21.512500762939453,-28.631250381469727,,,,forward 2.0
1762365254.2549741,0.7575870752334595,-0.07539966702461243,5.027841091156006,9.193763732910156,-3.418513774871826,0.15688323974609375,-0.48747047781944275,1.8480873107910156,-1.4297972917556763,-0.6771219968795776,-0.1830565333366394,-0.5800735950469971,0.41413870453834534,-156.03125,-22.918750762939453,-29.350000381469727,,,,forward 2.0
1762365254.2699654,2.390049695968628,0.33391278982162476,5.733964920043945,9.235017776489258,-3.2969322204589844,0.28426647186279297,-0.6316346526145935,1.184687614440918,-0.8616926074028015,-0.6732037663459778,-0.1797444224357605,-0.5904472470283508,0.407260000705719,-156.81875610351562,-23.950000762939453,-29.90625,,,,forward 2.0
1762365254.314577,3.6335456371307373,-0.6343146562576294,7.475337982177734,9.251709938049316,-3.2519054412841797,0.2590160369873047,-0.6548475623130798,0.40278011560440063,-0.40354371070861816,-0.6746543645858765,-0.17787596583366394,-0.5929515361785889,0.40200766921043396,-157.1125030517578,-24.387500762939453,-29.3125,,,,forward 2.0
1762365254.317625,4.392329692840576,-2.300288200378418,8.504603385925293,9.244611740112305,-3.2814009189605713,0.07529067993164062,-0.4740314185619354,-0.4805310368537903,-0.07123300433158875,-0.6814994812011719,-0.17810387909412384,-0.587153434753418,0.39885878562927246,-156.8125,-24.137500762939453,-27.5625,,,,forward 2.0
1762365254.3296607,5.829710483551025,-2.2129201889038086,7.738638401031494,9.212983131408691,-3.3604180812835693,-0.2543010711669922,-0.3127630054950714,-1.3259685039520264,0.32827287912368774,-0.6933425664901733,-0.17954769730567932,-0.5747441053390503,0.3958636224269867,-155.74375915527344,-24.20625114440918,-26.325000762939453,,,,forward 2.0
1762365254.3592026,7.008578300476074,-3.1225035190582275,4.413872241973877,9.150983810424805,-3.4733095169067383,-0.6570549011230469,-0.48747047781944275,-1.933168649673462,0.4406720697879791,-0.7072889804840088,-0.1822945922613144,-0.5578669905662537,0.3940753638744354,-154.6875,-24.006250381469727,-24.993749618530273,,,,forward 2.0
1762365254.3751411,7.513636112213135,-4.416265964508057,1.3105179071426392,9.027287483215332,-3.685788631439209,-1.0766477584838867,0.2577851414680481,-2.2752530574798584,0.7864217758178711,-0.7205451726913452,-0.18891705572605133,-0.5335214138031006,0.40059947967529297,-152.1999969482422,-22.90625,-22.274999618530273,,,,forward 2.0
1762365254.405182,9.281339645385742,-3.6802215576171875,-0.7803266644477844,8.851130485534668,-3.9532155990600586,-1.5052165985107422,1.156978726387024,-2.7187411785125732,1.2042536735534668,-0.7328795194625854,-0.19901277124881744,-0.5037527680397034,0.4117215573787689,-150.0749969482422,-21.212499618530273,-22.068750381469727,,,,forward 2.0
1762365254.4202645,9.659534454345703,-2.8460381031036377,-1.7856554985046387,8.622566223144531,-4.2500319480896,-1.9556808471679688,1.4147639274597168,-3.052273750305176,1.4412693977355957,-0.7455428838729858,-0.20938898622989655,-0.47074049711227417,0.4227592945098877,-147.61875915527344,-19.693750381469727,-19.875,,,,forward 2.0
1762365254.434173,9.700226783752441,-3.7089452743530273,-2.0752859115600586,8.343993186950684,-4.579468727111816,-2.375372886657715,1.4953981637954712,-3.145125150680542,1.5341209173202515,-0.7570812106132507,-0.21885375678539276,-0.43616607785224915,0.4343850612640381,-144.97500610351562,-17.80000114440918,-19.475000381469727,,,,forward 2.0
1762365254.4798396,9.485995292663574,-3.669450283050537,-3.3175852298736572,8.011781692504883,-4.927460670471191,-2.7870378494262695,1.4379768371582031,-3.0632693767547607,1.6966110467910767,-0.7689719796180725,-0.22523975372314453,-0.4009653329849243,0.44404494762420654,-142.38125610351562,-16.462499618530273,-18.868749618530273,,,,forward 2.0
1762365254.4833364,8.830138206481934,-5.118799209594727,-5.641809940338135,7.65341854095459,-5.251175403594971,-3.1759214401245117,1.0910053253173828,-2.963087320327759,1.6917240619659424,-0.7806883454322815,-0.22890464961528778,-0.3675454556941986,0.4505982995033264,-138.3249969482422,-14.699999809265137,-17.693750381469727,,,,forward 2.0
1762365254.4940333,9.401021957397461,-5.999659061431885,-5.599921226501465,7.288824081420898,-5.549396514892578,-3.5090408325195312,0.6914994716644287,-2.6319985389709473,1.6196420192718506,-0.7911869287490845,-0.22994224727153778,-0.3371700346469879,0.45548462867736816,-136.4499969482422,-13.475000381469727,-17.356250762939453,,,,forward 2.0
1762365254.5408754,8.921096801757812,-6.999003887176514,-3.8166592121124268,6.885443687438965,-5.915821075439453,-3.718846321105957,0.836885392665863,-2.4646213054656982,1.7222673892974854,-0.7978037595748901,-0.23033200204372406,-0.3053201735019684,0.4660857021808624,-133.9250030517578,-13.875,-16.625,,,,forward 2.0
1762365254.5439355,8.223350524902344,-6.7177510261535645,-4.415069103240967,6.497475624084473,-6.204001426696777,-3.9407224655151367,1.3671164512634277,-2.478060483932495,1.8065667152404785,-0.8045259118080139,-0.2314959168434143,-0.2757081687450409,0.47236931324005127,-131.1125030517578,-10.875,-16.65625,,,,forward 2.0
1762365254.5848973,7.431055545806885,-4.1972479820251465,-4.848318099975586,6.126203536987305,-6.323401927947998,-4.326703071594238,0.21013763546943665,-2.2227187156677246,1.5890986919403076,-0.8174644708633423,-0.228641539812088,-0.25197964906692505,0.46473780274391174,-128.71250915527344,-10.5,-16.59375,,,,forward 2.0
1762365254.5876253,6.515488147735596,-4.792067527770996,-4.835153102874756,5.708168983459473,-6.3500213623046875,-4.830130577087402,-1.4917329549789429,-2.1665191650390625,1.4400476217269897,-0.8350448608398438,-0.2210974395275116,-0.2296840101480484,0.448398619890213,-126.6500015258789,-11.625,-14.975000381469727,,,,forward 2.0
1762365254.5996282,4.9751811027526855,-4.753769397735596,-1.3452256917953491,5.229470252990723,-6.410867214202881,-5.271577835083008,-1.6823228597640991,-2.3277876377105713,1.8322230577468872,-0.8503267168998718,-0.21360793709754944,-0.20404668152332306,0.4355239272117615,-124.36250305175781,-12.456250190734863,-14.393750190734863,,,,forward 2.0
1762365254.645953,1.487647294998169,-3.7412595748901367,-0.9694242477416992,4.7463812828063965,-6.407770156860352,-5.713881492614746,-1.177748203277588,-2.4291911125183105,1.4595953226089478,-0.8643553256988525,-0.21004101634025574,-0.17757578194141388,0.42099812626838684,-120.8499984741211,-13.96250057220459,-13.518750190734863,,,,forward 2.0
1762365254.6490421,2.8879268169403076,-6.899667739868164,-4.580230236053467,4.251494884490967,-6.3856611251831055,-6.114267349243164,-1.4929546117782593,-2.606342077255249,1.2189143896102905,-0.8766505122184753,-0.2076493203639984,-0.1507822573184967,0.4069771468639374,-118.07500457763672,-13.625,-12.318750381469727,,,,forward 2.0
1762365254.674175,4.726242542266846,-11.41407299041748,-9.220301628112793,3.75656795501709,-6.452960968017578,-6.362673759460449,-0.6939429044723511,-2.4707300662994385,1.2164709568023682,-0.8843766450881958,-0.20536112785339355,-0.12348198145627975,0.400570809841156,-114.8812484741211,-14.350000381469727,-11.568750381469727,,,,forward 2.0
1762365254.68955,4.836349964141846,-9.891717910766602,-13.106376647949219,3.340176582336426,-6.470076084136963,-6.574000358581543,-0.1966986060142517,-2.156745195388794,1.1602712869644165,-0.8910623788833618,-0.20266741514205933,-0.1016254872083664,0.3931998312473297,-111.38750457763672,-14.58750057220459,-12.46250057220459,,,,forward 2.0
1762365254.7047281,3.7771639823913574,-9.396234512329102,-14.39415454864502,3.0405726432800293,-6.45156192779541,-6.735604286193848,-0.5412266254425049,-1.5678712129592896,0.9733465909957886,-0.8964078426361084,-0.1993889957666397,-0.08698519319295883,0.3861742913722992,-110.42500305175781,-14.925000190734863,-13.324999809265137,,,,forward 2.0
1762365254.7349737,1.467301368713379,-11.55410099029541,-15.389908790588379,2.9303836822509766,-6.429322242736816,-6.805350303649902,-0.3799581825733185,-0.8091765642166138,0.5445191860198975,-0.8988166451454163,-0.19744998216629028,-0.08211730420589447,0.38262122869491577,-109.0999984741211,-16.506250381469727,-13.03125,,,,forward 2.0
1762365254.7499204,1.0651698112487793,-13.909442901611328,-17.110937118530273,3.0650858879089355,-6.415170669555664,-6.759211540222168,-0.09040805697441101,0.24028995633125305,-0.004037827719002962,-0.8975974917411804,-0.19704057276248932,-0.08975467085838318,0.38397645950317383,-109.51875305175781,-15.125,-13.05625057220459,,,,forward 2.0
1762365254.7800448,1.4888441562652588,-12.57259464263916,-17.426897048950195,3.434962034225464,-6.37146520614624,-6.621298789978027,0.16493360698223114,1.4326989650726318,-0.6601070761680603,-0.8935855627059937,-0.19743812084197998,-0.11024461686611176,0.38777467608451843,-111.5562515258789,-15.006250381469727,-13.350000381469727,,,,forward 2.0
1762365254.7952847,2.1387174129486084,-12.014876365661621,-15.971563339233398,3.9856603145599365,-6.300837516784668,-6.375741004943848,0.12339477986097336,2.4870524406433105,-1.1842294931411743,-0.8864802122116089,-0.19777297973632812,-0.14130175113677979,0.3937925100326538,-115.42500305175781,-14.90000057220459,-12.52500057220459,,,,forward 2.0
1762365254.821532,2.113584280014038,-10.67084789276123,-13.309835433959961,4.650299072265625,-6.186695098876953,-6.027902603149414,0.3677408695220947,3.3190507888793945,-1.464005708694458,-0.8763790726661682,-0.19797050952911377,-0.1799885779619217,0.40046411752700806,-119.3187484741211,-14.65625,-13.362500190734863,,,,forward 2.0
1762365254.8399537,1.0352493524551392,-9.063518524169922,-11.327901840209961,5.360095024108887,-6.030172348022461,-5.580549240112305,0.15515977144241333,3.950685501098633,-1.7144604921340942,-0.863588273525238,-0.19658811390399933,-0.22373828291893005,0.40682870149612427,-123.4000015258789,-16.193750381469727,-13.18125057220459,,,,forward 2.0
1762365254.8544307,1.1453567743301392,-8.107258796691895,-9.018038749694824,6.048113822937012,-5.890811920166016,-4.995476722717285,0.2968805134296417,4.351413249969482,-1.8195292949676514,-0.8467604517936707,-0.19392822682857513,-0.2687457501888275,0.4161302447319031,-127.6937484741211,-14.856249809265137,-14.037500381469727,,,,forward 2.0
1762365254.8849754,0.6486764550209045,-6.106175899505615,-5.088879108428955,6.656268119812012,-5.791693687438965,-4.2879486083984375,0.7318165898323059,4.46259069442749,-1.7156822681427002,-0.825976550579071,-0.19055873155593872,-0.31169524788856506,0.42929744720458984,-131.25,-14.912500381469727,-15.256250381469727,,,,forward 2.0
1762365254.8999796,1.221953272819519,-4.2247748374938965,-1.9460294246673584,7.151578903198242,-5.762779712677002,-3.446946144104004,1.3463469743728638,4.419829845428467,-1.3845932483673096,-0.8005222678184509,-0.18667998909950256,-0.3506993353366852,0.44869232177734375,-136.9375,-14.137499809265137,-17.631250381469727,,,,forward 2.0
1762365254.91471,2.1099936962127686,-4.813610076904297,-0.4057219922542572,7.575095176696777,-5.683568954467773,-2.559511184692383,2.094046115875244,4.248787879943848,-1.2245465517044067,-0.7717750072479248,-0.18659454584121704,-0.38689854741096497,0.4688873887062073,-140.74375915527344,-13.59375,-20.881250381469727,,,,forward 2.0
1762365254.944604,1.6312657594680786,-5.768672466278076,2.6401851177215576,7.955620765686035,-5.434128284454346,-1.8478326797485352,1.833817481994629,3.7857518196105957,-1.7352299690246582,-0.7470287084579468,-0.1900767982006073,-0.42119109630584717,0.4779300391674042,-143.21250915527344,-14.675000190734863,-22.80000114440918,,,,forward 2.0
1762365254.9742293,0.5996068716049194,-5.368934631347656,3.5018954277038574,8.249582290649414,-5.133910655975342,-1.3503599166870117,0.5913175344467163,2.912214517593384,-2.1212968826293945,-0.7290325164794922,-0.1932285875082016,-0.4500029683113098,0.47819629311561584,-146.21875,-13.881250381469727,-23.83125114440918,,,,forward 2.0
1762365254.9907134,1.8502838611602783,-5.068532943725586,3.250563383102417,8.459016799926758,-4.884471893310547,-0.9072303771972656,0.455705463886261,2.279358148574829,-1.6631478071212769,-0.7119587659835815,-0.19838039577007294,-0.4715292453765869,0.4810613691806793,-148.4499969482422,-14.65000057220459,-25.75,,,,forward 2.0
1762365255.0057447,2.2344629764556885,-2.1734251976013184,3.3846070766448975,8.619040489196777,-4.652271270751953,-0.5519237518310547,1.0213667154312134,1.6550538539886475,-1.4603406190872192,-0.6967282295227051,-0.20664082467556,-0.4867609143257141,0.4846990406513214,-149.8874969482422,-15.662500381469727,-28.262500762939453,,,,forward 2.0
1762365255.0195515,2.514518976211548,-0.04428234323859215,4.756163120269775,8.737937927246094,-4.445418357849121,-0.35044288635253906,0.7904596328735352,1.055184245109558,-1.2758592367172241,-0.6870459318161011,-0.21407802402973175,-0.4971926808357239,0.484703928232193,-150.4812469482422,-15.93125057220459,-29.712499618530273,,,,forward 2.0
1762365255.0494435,3.8046910762786865,1.5941643714904785,6.327587604522705,8.81026840209961,-4.301901817321777,-0.3300209045410156,0.31031954288482666,0.3099285960197449,-0.9411051273345947,-0.684407651424408,-0.2200155109167099,-0.5013135075569153,0.48152267932891846,-149.5437469482422,-17.274999618530273,-30.443750381469727,,,,forward 2.0
1762365255.0796027,6.929588317871094,2.5779504776000977,6.595675468444824,8.86312484741211,-4.185283184051514,-0.40561389923095703,-0.1918116956949234,-0.20319820940494537,-0.5904684662818909,-0.6860470771789551,-0.22363559901714325,-0.5035960674285889,0.4750973880290985,-148.1374969482422,-16.931249618530273,-29.92500114440918,,,,forward 2.0
1762365255.096601,6.809906005859375,2.7778193950653076,5.2983222007751465,8.867171287536621,-4.142085075378418,-0.6726951599121094,-0.7428121566772461,-0.515961229801178,-0.4120958149433136,-0.6959746479988098,-0.22339531779289246,-0.5004441738128662,0.4639713764190674,-147.27500915527344,-17.681249618530273,-29.881250381469727,,,,forward 2.0
1762365255.1109302,7.264697551727295,-0.5996068716049194,5.177443504333496,8.780043601989746,-4.210168838500977,-1.1922435760498047,-1.4355332851409912,-1.5361062288284302,0.22198231518268585,-0.714520275592804,-0.22411496937274933,-0.48444274067878723,0.4522704482078552,-146.5749969482422,-18.043750762939453,-26.337499618530273,,,,forward 2.0
1762365255.1383076,9.221498489379883,-4.346850395202637,4.8794355392456055,8.58780574798584,-4.374283790588379,-1.8306665420532227,-0.7953465580940247,-3.0241739749908447,0.7632089257240295,-0.7343045473098755,-0.23260048031806946,-0.45432141423225403,0.44753313064575195,-145.8000030517578,-18.024999618530273,-24.200000762939453,,,,forward 2.0
1762365255.1549048,10.022171020507812,-3.485140085220337,2.720371961593628,8.27713394165039,-4.64647102355957,-2.4769935607910156,0.46670103073120117,-4.014997482299805,1.1162890195846558,-0.7519052624702454,-0.24675258994102478,-0.41320860385894775,0.45056667923927307,-143.5,-17.668750762939453,-21.71875,,,,forward 2.0
1762365255.1838439,11.904768943786621,-3.696977138519287,0.2285926342010498,7.861432075500488,-5.043910026550293,-2.998828887939453,1.508837103843689,-4.397398948669434,1.5597771406173706,-0.7644449472427368,-0.2616666853427887,-0.3661387264728546,0.46162423491477966,-141.10000610351562,-15.100000381469727,-19.5,,,,forward 2.0
1762365255.2007987,12.365545272827148,-4.198444843292236,-2.6605310440063477,7.3886003494262695,-5.509263038635254,-3.3604660034179688,2.3518311977386475,-4.188483238220215,1.9311832189559937,-0.7714083194732666,-0.2760557234287262,-0.31728294491767883,0.47755002975463867,-137.84375,-13.081250190734863,-19.012500762939453,,,,forward 2.0
1762365255.2150145,11.234549522399902,-2.7838034629821777,-8.574018478393555,6.9081926345825195,-5.980406761169434,-3.57039737701416,2.7452282905578613,-3.7633209228515625,1.993491530418396,-0.7753593325614929,-0.28424519300460815,-0.27326762676239014,0.493302583694458,-132.33750915527344,-9.52500057220459,-20.14375114440918,,,,forward 2.0
1762365255.2305837,11.515802383422852,-2.3326022624969482,-12.093866348266602,6.446719169616699,-6.3668317794799805,-3.7602415084838867,1.8851301670074463,-2.5464773178100586,2.1779727935791016,-0.7833454012870789,-0.27932676672935486,-0.24108494818210602,0.5002246499061584,-129.15000915527344,-8.0625,-21.543750762939453,,,,forward 2.0
1762365255.2600482,11.844927787780762,-1.504402756690979,-9.252615928649902,5.976480960845947,-6.480264663696289,-4.303947448730469,-0.49724429845809937,-1.8366519212722778,2.4931793212890625,-0.8065963387489319,-0.2622359097003937,-0.22114644944667816,0.4813823699951172,-125.53125,-9.381250381469727,-20.443750381469727,,,,forward 2.0
1762365255.274607,10.235204696655273,-6.963099002838135,-11.4667329788208,5.597420692443848,-6.130804538726807,-5.2266845703125,-4.274835109710693,-1.3846116065979004,2.2524983882904053,-0.8415946364402771,-0.24106892943382263,-0.21499505639076233,0.43287575244903564,-124.1812515258789,-10.668749809265137,-17.262500762939453,,,,forward 2.0
1762365255.3043017,4.847121238708496,-14.069816589355469,-5.456302642822266,5.153587818145752,-5.741064071655273,-6.059438705444336,-6.031683444976807,-1.598414421081543,1.680728554725647,-0.8709995746612549,-0.2240527868270874,-0.20180116593837738,0.3878612220287323,-123.65625,-14.625,-13.262499809265137,,,,forward 2.0
1762365255.3201141,3.699370861053467,-11.91793441772461,-1.9077311754226685,4.749208927154541,-5.546589374542236,-6.551064491271973,-3.8460075855255127,-2.2337143421173096,0.9867855906486511,-0.8865869641304016,-0.21877124905586243,-0.18318809568881989,0.364067018032074,-120.2562484741211,-17.943750381469727,-11.831250190734863,,,,forward 2.0
1762365255.3351188,-5.210954666137695,-3.917191982269287,-7.397544860839844,4.356221675872803,-5.763129711151123,-6.636702537536621,-0.26633724570274353,-1.9099557399749756,1.3398656845092773,-0.8905918002128601,-0.21238720417022705,-0.1614670306444168,0.368329256772995,-118.5999984741211,-17.30000114440918,-12.287500381469727,,,,forward 2.0
1762365255.3664172,1.0687602758407593,-14.161972045898438,-15.787253379821777,4.202191352844238,-6.0569634437561035,-6.472321510314941,1.263269305229187,-0.8543805480003357,1.1749321222305298,-0.887257993221283,-0.20653589069843292,-0.15215568244457245,0.3833601176738739,-117.4749984741211,-17.337499618530273,-12.90000057220459,,,,forward 2.0
1762365255.3915248,2.966917037963867,-16.711198806762695,-20.962303161621094,4.387659072875977,-6.1303582191467285,-6.277205467224121,1.379333734512329,0.6776694655418396,0.3246076703071594,-0.8820710182189941,-0.20466993749141693,-0.16258428990840912,0.3919532895088196,-117.7249984741211,-15.112500190734863,-13.706250190734863,,,,forward 2.0
1762365255.4104676,4.759753227233887,-12.02684497833252,-21.579862594604492,4.816221714019775,-5.960065841674805,-6.125174522399902,-0.08674286305904388,1.9152824878692627,-0.7981626391410828,-0.8779100775718689,-0.20362769067287445,-0.18917742371559143,0.3898995816707611,-119.6500015258789,-15.425000190734863,-13.693750381469727,,,,forward 2.0
1762365255.4244251,3.594050645828247,-11.10888385772705,-17.399370193481445,5.419946670532227,-5.696126461029053,-5.866384506225586,-0.6914994716644287,2.9146580696105957,-1.3870368003845215,-0.8703939914703369,-0.20350554585456848,-0.22698445618152618,0.3866237699985504,-124.2437515258789,-16.25,-13.96250057220459,,,,forward 2.0
1762365255.4394388,0.38896653056144714,-11.4236478805542,-13.61861515045166,6.153885364532471,-5.366060733795166,-5.437938690185547,-0.675616979598999,3.7796432971954346,-1.9734673500061035,-0.8574075102806091,-0.20497654378414154,-0.2739039659500122,0.3844652473926544,-129.0437469482422,-17.36250114440918,-14.36875057220459,,,,forward 2.0
1762365255.4702945,-1.5989515781402588,-12.013679504394531,-10.326163291931152,6.933574676513672,-4.960585117340088,-4.853272438049316,-0.4105014503002167,4.522455215454102,-2.4511640071868896,-0.838973879814148,-0.20853380858898163,-0.32616445422172546,0.3824307322502136,-133.31875610351562,-19.5,-14.850000381469727,,,,forward 2.0
1762365255.4851665,-2.0345940589904785,-8.424416542053223,-5.244465351104736,7.658679485321045,-4.487224578857422,-4.176791191101074,-0.47280970215797424,4.776575088500977,-2.9080913066864014,-0.8170099854469299,-0.21302342414855957,-0.37902432680130005,0.3787562847137451,-138.5625,-20.17500114440918,-15.268750190734863,,,,forward 2.0
1762365255.514613,-1.4720886945724487,-4.911749362945557,0.026330040767788887,8.269272804260254,-4.004426002502441,-3.4379987716674805,-0.35674530267715454,4.58598518371582,-2.94963002204895,-0.7920309901237488,-0.21889770030975342,-0.42821264266967773,0.37603822350502014,-142.91250610351562,-22.231250762939453,-16.481250762939453,,,,forward 2.0
1762365255.543591,0.3135668635368347,-3.5844759941101074,1.5606533288955688,8.755304336547852,-3.5382230281829834,-2.6573963165283203,0.12217304855585098,4.296435356140137,-2.8641088008880615,-0.764022171497345,-0.22740569710731506,-0.472001850605011,0.37652501463890076,-148.7062530517578,-24.30000114440918,-20.05000114440918,,,,forward 2.0
1762365255.5466573,1.452939510345459,-3.4540226459503174,2.7239625453948975,9.121345520019531,-3.0933876037597656,-1.8622875213623047,0.9297369122505188,3.8822684288024902,-2.765148639678955,-0.7322339415550232,-0.24238666892051697,-0.5079692006111145,0.3834703266620636,-152.68125915527344,-25.375,-22.181249618530273,,,,forward 2.0
1762365255.576674,0.4978771507740021,-5.669336795806885,7.504061698913574,9.379053115844727,-2.622974157333374,-1.1787500381469727,2.1710150241851807,3.220090627670288,-2.8299005031585693,-0.6987162828445435,-0.26809436082839966,-0.5323710441589355,0.3956032991409302,-155.4499969482422,-26.293750762939453,-24.58125114440918,,,,forward 2.0
1762365255.6042442,0.8389708399772644,-6.216283321380615,9.241844177246094,9.54196834564209,-2.1610684394836426,-0.7188386917114258,3.219259738922119,1.96659517288208,-2.8555567264556885,-0.6688248515129089,-0.29885008931159973,-0.5447960495948792,0.4081166386604309,-156.1750030517578,-26.212499618530273,-27.08125114440918,,,,forward 2.0
1762365255.6072338,2.059727430343628,-0.5038612484931946,7.227596282958984,9.655669212341309,-1.6936731338500977,-0.3683032989501953,2.8405234813690186,0.9659978747367859,-2.43528151512146,-0.6449099779129028,-0.3207225203514099,-0.5584268569946289,0.4115673303604126,-155.61875915527344,-27.25,-29.818750381469727,,,,forward 2.0
1762365255.634673,0.28843364119529724,6.027185916900635,7.2682881355285645,9.692419052124023,-1.488760232925415,-0.2769479751586914,0.5668829679489136,1.3777210712432861,-1.8977200984954834,-0.6392343640327454,-0.3247999846935272,-0.5662940144538879,0.4064424932003021,-155.4250030517578,-29.231250762939453,-30.962499618530273,,,,forward 2.0
1762365255.64956,3.0279548168182373,2.0537431240081787,6.8063154220581055,9.674589157104492,-1.5115768909454346,-0.5946016311645508,-0.2968805134296417,-0.6308038830757141,-0.3021400570869446,-0.6480486989021301,-0.33217281103134155,-0.5543220639228821,0.40301504731178284,-156.0749969482422,-29.700000762939453,-30.21875,,,,forward 2.0
1762365255.681163,5.169065952301025,4.792067527770996,7.812841415405273,9.578800201416016,-1.7098345756530762,-1.2486610412597656,0.9468411207199097,-2.871457576751709,0.5604016780853271,-0.6650635600090027,-0.34832844138145447,-0.5222085118293762,0.4045441746711731,-154.93125915527344,-29.21875,-27.743749618530273,,,,forward 2.0
1762365255.6961412,8.311915397644043,9.392643928527832,5.914684772491455,9.372011184692383,-2.002149820327759,-2.0959291458129883,1.2986994981765747,-4.1347270011901855,1.2421272993087769,-0.6894779801368713,-0.36255520582199097,-0.48176881670951843,0.4013386368751526,-153.34375,-26.981250762939453,-25.15625,,,,forward 2.0
1762365255.725713,10.443451881408691,6.764427185058594,2.236856698989868,9.029333114624023,-2.3722190856933594,-3.0132761001586914,0.5167919993400574,-4.724822998046875,1.6294158697128296,-0.7183841466903687,-0.3708181083202362,-0.43724143505096436,0.39400261640548706,-150.35000610351562,-25.34375,-21.618749618530273,,,,forward 2.0
1762365255.7390208,12.555839538574219,4.853105545043945,-1.7401763200759888,8.553412437438965,-2.820307731628418,-3.88858699798584,0.26511552929878235,-4.95084285736084,2.2195117473602295,-0.7474378347396851,-0.37353944778442383,-0.3897955119609833,0.3871232569217682,-144.6687469482422,-23.149999618530273,-17.287500381469727,,,,forward 2.0
1762365255.7546856,12.70783519744873,2.1303396224975586,-5.524521350860596,7.972357749938965,-3.3524856567382812,-4.630169868469238,0.30543261766433716,-4.644188404083252,2.7668468952178955,-0.7739199995994568,-0.370189368724823,-0.34133341908454895,0.3840562701225281,-140.09375,-21.05000114440918,-15.40625,,,,forward 2.0
1762365255.784602,10.692390441894531,-1.7497509717941284,-7.742228984832764,7.321316719055176,-3.9436700344085693,-5.204029083251953,0.7098253965377808,-4.124953269958496,3.1235921382904053,-0.7957813739776611,-0.36328089237213135,-0.2926267981529236,0.38617169857025146,-135.44375610351562,-19.793750762939453,-14.21250057220459,,,,forward 2.0
1762365255.8152983,8.691307067871094,-4.708290100097656,-10.993988990783691,6.627865791320801,-4.553642272949219,-5.6188859939575195,1.1447614431381226,-3.616713285446167,3.187122106552124,-0.8131458759307861,-0.3538069725036621,-0.24488556385040283,0.3919765055179596,-130.9499969482422,-17.03125,-14.131250381469727,,,,forward 2.0
1762365255.8183014,9.223892211914062,-6.385035037994385,-12.99028491973877,5.919623374938965,-5.081562042236328,-5.947430610656738,1.1679743528366089,-3.2489724159240723,3.3007431030273438,-0.8299548029899597,-0.33809173107147217,-0.20276056230068207,0.39466094970703125,-126.86250305175781,-15.8125,-14.52500057220459,,,,forward 2.0
1762365255.846781,9.908473014831543,-7.557918548583984,-11.983758926391602,5.256782531738281,-5.371668815612793,-6.304564476013184,0.3274237811565399,-2.441408395767212,3.7381227016448975,-0.8497400283813477,-0.31508004665374756,-0.17216676473617554,0.3860377073287964,-120.7874984741211,-14.850000381469727,-15.125,,,,forward 2.0
1762365255.8601394,7.6057915687561035,-8.569231986999512,-8.353803634643555,4.591692924499512,-5.43742561340332,-6.751801490783691,-1.794722080230713,-2.0162463188171387,3.326399564743042,-0.8711988925933838,-0.2917894124984741,-0.1457386314868927,0.3669217824935913,-118.32500457763672,-15.893750190734863,-14.350000381469727,,,,forward 2.0
1762365255.8899415,2.1363236904144287,-7.869091987609863,-9.089848518371582,4.0360188484191895,-5.344847202301025,-7.167937278747559,-2.350609540939331,-2.2276055812835693,2.659334659576416,-0.8889563083648682,-0.2740345001220703,-0.1250547617673874,0.3449974060058594,-116.51250457763672,-17.65625,-13.574999809265137,,,,forward 2.0
1762365255.904625,-10.652894973754883,-7.466960430145264,-12.615679740905762,3.745380401611328,-5.487516403198242,-7.217715263366699,-1.0421360731124878,-1.3894984722137451,1.896974802017212,-0.8932065367698669,-0.2646836042404175,-0.11116833984851837,0.34607261419296265,-115.39375305175781,-17.418750762939453,-13.08750057220459,,,,forward 2.0
1762365255.9354515,-3.847776412963867,-17.532217025756836,-22.28718376159668,3.853433609008789,-5.810096263885498,-6.9014482498168945,1.4465289115905762,0.1523253619670868,0.7241135239601135,-0.8855112195014954,-0.2600492835044861,-0.11377514153718948,0.36783093214035034,-115.375,-16.506250381469727,-13.693750381469727,,,,forward 2.0
1762365255.950404,0.9981479048728943,-16.385663986206055,-22.341039657592773,4.335056781768799,-5.959053993225098,-6.475573539733887,2.146580457687378,2.0313467979431152,-0.4524129033088684,-0.8730119466781616,-0.26057595014572144,-0.13703970611095428,0.38880646228790283,-118.0062484741211,-14.018750190734863,-15.15625,,,,forward 2.0
1762365255.965421,3.4887304306030273,-14.793892860412598,-19.280771255493164,5.079724311828613,-5.751170635223389,-6.112004280090332,0.9749409556388855,3.381359100341797,-1.6411566734313965,-0.8616502285003662,-0.2628267705440521,-0.17996379733085632,0.39508751034736633,-121.375,-13.78125,-15.83750057220459,,,,forward 2.0
1762365255.9947848,0.8880404829978943,-9.855813026428223,-16.200157165527344,5.937765598297119,-5.249810218811035,-5.780879974365234,-1.2412781715393066,4.413721084594727,-2.317995309829712,-0.8526058197021484,-0.26020288467407227,-0.23709741234779358,0.3861900269985199,-125.45000457763672,-15.612500190734863,-16.231250762939453,,,,forward 2.0
1762365256.0096095,-2.5360617637634277,-9.710997581481934,-10.12150764465332,6.804234027862549,-4.7328081130981445,-5.247763633728027,-2.03540301322937,5.199294090270996,-2.502476692199707,-0.8376120328903198,-0.25666359066963196,-0.29782435297966003,0.3792499303817749,-131.18125915527344,-17.899999618530273,-15.27500057220459,,,,forward 2.0
1762365256.041516,-3.8382019996643066,-7.197675704956055,-3.084205389022827,7.548003196716309,-4.386668682098389,-4.4744720458984375,-0.9676105380058289,5.310471534729004,-2.539128541946411,-0.8140172958374023,-0.25579777359962463,-0.35157790780067444,0.38514456152915955,-136.22500610351562,-19.756250381469727,-15.53125,,,,forward 2.0
1762365256.0560617,0.1615707129240036,-5.115209102630615,1.9891148805618286,8.135917663574219,-4.196035385131836,-3.526505470275879,1.0739010572433472,4.968387126922607,-2.122518539428711,-0.7818569540977478,-0.2616104781627655,-0.3946608603000641,0.4055890440940857,-143.24375915527344,-19.9375,-18.399999618530273,,,,forward 2.0
1762365256.0825367,3.7903292179107666,-3.3690483570098877,4.926111221313477,8.603116989135742,-3.910135507583618,-2.6331253051757812,2.515542984008789,4.231683254241943,-2.3228824138641357,-0.7464199662208557,-0.27760300040245056,-0.42883703112602234,0.42648884654045105,-146.9875030517578,-19.39375114440918,-20.931249618530273,,,,forward 2.0
1762365256.0998833,4.8926005363464355,-2.2955007553100586,5.8285136222839355,8.947129249572754,-3.5309364795684814,-1.9280738830566406,2.5839600563049316,3.094252347946167,-2.8274569511413574,-0.7137866616249084,-0.2979588210582733,-0.45444145798683167,0.4418281316757202,-149.44375610351562,-19.8125,-23.61250114440918,,,,forward 2.0
1762365256.1439295,6.401790618896484,-0.6630383133888245,4.4449896812438965,9.213885307312012,-3.0995261669158936,-1.3165721893310547,2.7122416496276855,2.3416664600372314,-2.6075456142425537,-0.6808363199234009,-0.3218159079551697,-0.4741506278514862,0.45615527033805847,-151.5187530517578,-20.168750762939453,-26.212499618530273,,,,forward 2.0
1762365256.147109,6.436498165130615,1.2518737316131592,6.108569622039795,9.409942626953125,-2.6105542182922363,-0.9349231719970703,2.4300220012664795,1.7613444328308105,-2.8140180110931396,-0.6589301824569702,-0.33684203028678894,-0.49522465467453003,0.4550835192203522,-152.91250610351562,-21.3125,-29.575000762939453,,,,forward 2.0
1762365256.1616235,5.3330302238464355,9.000086784362793,5.475451946258545,9.486798286437988,-2.404637098312378,-0.6741600036621094,-1.3255776166915894,1.8260961771011353,-1.9270416498184204,-0.6573902368545532,-0.319685697555542,-0.5215296149253845,0.4400522708892822,-154.0749969482422,-23.381250381469727,-30.274999618530273,,,,forward 2.0
1762365256.178043,3.0387260913848877,2.5372586250305176,9.781610488891602,9.45087718963623,-2.5474493503570557,-0.6538476943969727,-2.7207937240600586,1.4180381298065186,0.27329498529434204,-0.664405345916748,-0.3031355142593384,-0.526287317276001,0.435541033744812,-155.08750915527344,-24.4375,-29.168750762939453,,,,forward 2.0
1762365256.2040548,5.062548637390137,-0.6845811009407043,9.916851043701172,9.317033767700195,-2.951167106628418,-0.8483009338378906,-0.06108652800321579,-0.5758259892463684,1.5524468421936035,-0.6727811098098755,-0.3010018765926361,-0.5047724843025208,0.44940876960754395,-154.0500030517578,-22.962499618530273,-29.475000381469727,,,,forward 2.0
1762365256.2343755,6.2282514572143555,1.3715558052062988,8.090503692626953,9.094943046569824,-3.4627583026885986,-1.2358951568603516,1.966986060142517,-2.2838051319122314,2.248833179473877,-0.6831492781639099,-0.31032028794288635,-0.4652080535888672,0.46967002749443054,-152.22500610351562,-20.443750381469727,-28.20625114440918,,,,forward 2.0
1762365256.2374883,8.667370796203613,2.017838716506958,5.196592807769775,8.767237663269043,-4.0532612800598145,-1.7154350280761719,2.744006633758545,-3.5006487369537354,2.6263480186462402,-0.695178210735321,-0.3227386474609375,-0.4153117537498474,0.48998284339904785,-147.83750915527344,-15.918749809265137,-26.774999618530273,,,,forward 2.0
1762365256.265067,11.070585250854492,1.6815321445465088,1.7246177196502686,8.346524238586426,-4.668397903442383,-2.1857967376708984,2.7281241416931152,-3.990562677383423,2.8450376987457275,-0.7074784636497498,-0.3329876661300659,-0.36266592144966125,0.5070176124572754,-144.43125915527344,-12.77500057220459,-25.481250762939453,,,,forward 2.0
1762365256.2794914,12.40623664855957,0.07180920243263245,-1.6851226091384888,7.835371017456055,-5.310569763183594,-2.5769968032836914,2.370157241821289,-3.8195204734802246,3.128479242324829,-0.7201940417289734,-0.3356574773788452,-0.31165382266044617,0.5210819840431213,-141.2375030517578,-10.21875,-24.818750381469727,,,,forward 2.0
1762365256.3240952,12.151313781738281,-2.0908446311950684,-4.917733669281006,7.273094177246094,-5.896760940551758,-2.926851272583008,1.6823228597640991,-3.2294247150421143,3.4143640995025635,-0.7354962825775146,-0.32897132635116577,-0.26768532395362854,0.5283632874488831,-136.96250915527344,-7.643750190734863,-25.26875114440918,,,,forward 2.0
1762365256.3271177,11.381758689880371,-3.1560144424438477,-7.437039852142334,6.690483093261719,-6.31968879699707,-3.396328926086426,0.15760323405265808,-2.4230825901031494,3.53531551361084,-0.758916974067688,-0.31168973445892334,-0.23532193899154663,0.5210739374160767,-132.5,-6.481250286102295,-24.39375114440918,,,,forward 2.0
1762365256.3542771,9.071895599365234,-4.227168560028076,-7.471747398376465,6.068411827087402,-6.405494689941406,-4.287209510803223,-2.7097983360290527,-1.999142050743103,3.4033684730529785,-0.7977105379104614,-0.2866532802581787,-0.21314004063606262,0.48585933446884155,-126.3062515258789,-8.30625057220459,-21.731250762939453,,,,forward 2.0
1762365256.3699193,7.340097427368164,-9.544639587402344,-8.801414489746094,5.45253849029541,-6.054561614990234,-5.463352203369141,-5.937610149383545,-2.371769905090332,3.019745111465454,-0.8424977660179138,-0.26202258467674255,-0.19689975678920746,0.4275186359882355,-123.65625,-10.949999809265137,-16.618749618530273,,,,forward 2.0
1762365256.3849323,4.883025646209717,-22.886789321899414,-9.456075668334961,4.859307765960693,-5.700070381164551,-6.335013389587402,-6.222273349761963,-2.6319985389709473,2.324580430984497,-0.8724081516265869,-0.2485750913619995,-0.1748158186674118,0.38282349705696106,-122.33125305175781,-15.081250190734863,-13.21875,,,,forward 2.0
1762365256.4160907,4.215200424194336,-19.686492919921875,-8.055795669555664,4.517362594604492,-5.498591423034668,-6.752411842346191,-2.858849287033081,-2.932544231414795,0.797417402267456,-0.8836158514022827,-0.2517591118812561,-0.15742227435112,0.3620202839374542,-120.3375015258789,-16.65625,-14.27500057220459,,,,forward 2.0
1762365256.43002,-10.847976684570312,-2.6832704544067383,-13.34933090209961,4.372851371765137,-5.476123809814453,-6.864861488342285,-0.5791002511978149,-1.3296337127685547,0.08637022972106934,-0.8862705230712891,-0.25380221009254456,-0.14906732738018036,0.3576141595840454,-118.41875457763672,-16.743749618530273,-13.800000190734863,,,,forward 2.0
1762365256.4589152,-5.862024784088135,-15.821961402893066,-20.815093994140625,4.572153091430664,-5.608548641204834,-6.623871803283691,0.25534167885780334,0.11200825124979019,-0.24838392436504364,-0.8787344098091125,-0.25580066442489624,-0.15717767179012299,0.37106192111968994,-120.1312484741211,-17.131250381469727,-14.83750057220459,,,,forward 2.0
1762365256.474825,-0.7001397609710693,-12.51873779296875,-19.232898712158203,5.05635404586792,-5.696755409240723,-6.181939125061035,1.8277088403701782,2.173067569732666,-0.9435485601425171,-0.8650189638137817,-0.25850677490234375,-0.18141590058803558,0.38987788558006287,-122.48750305175781,-14.96250057220459,-15.081250190734863,,,,forward 2.0
1762365256.489637,0.5014675855636597,-11.178298950195312,-14.89083480834961,5.710433006286621,-5.5099029541015625,-5.767845153808594,1.016479730606079,3.1345694065093994,-1.599617838859558,-0.8517636656761169,-0.26168015599250793,-0.21967782080173492,0.3971949815750122,-124.9937515258789,-14.768750190734863,-16.368749618530273,,,,forward 2.0
1762365256.5196054,1.463710904121399,-5.900322914123535,-12.834698677062988,6.417520999908447,-5.147849082946777,-5.3433332443237305,-0.5644394755363464,3.99588942527771,-2.052879810333252,-0.8397936820983887,-0.259012907743454,-0.26766613125801086,0.3949858248233795,-128.41250610351562,-15.787500381469727,-16.40625,,,,forward 2.0
1762365256.5346067,1.3200925588607788,-5.391674518585205,-8.759526252746582,7.084617614746094,-4.885540008544922,-4.70911979675293,-0.911410927772522,4.61775016784668,-1.884281039237976,-0.8221250176429749,-0.2532326579093933,-0.3159463703632355,0.4002020061016083,-132.6999969482422,-17.51875114440918,-16.0,,,,forward 2.0
1762365256.5646052,0.5804577469825745,-4.677172660827637,-3.449235439300537,7.653148651123047,-4.802022933959961,-3.821782112121582,0.6585127115249634,4.84132719039917,-1.5837353467941284,-0.7947772741317749,-0.25123533606529236,-0.3577016294002533,0.421021968126297,-139.02500915527344,-18.837499618530273,-19.0625,,,,forward 2.0
1762365256.5790782,2.1327333450317383,-4.909355640411377,-0.8676945567131042,8.119688034057617,-4.7248077392578125,-2.825411796569824,2.465452194213867,4.449151515960693,-1.630161166191101,-0.7598851323127747,-0.25803354382514954,-0.3918250799179077,0.4499625861644745,-142.8937530517578,-16.67500114440918,-21.756250381469727,,,,forward 2.0
1762365256.5950804,4.048842430114746,-4.395920276641846,1.9747531414031982,8.502629280090332,-4.509792327880859,-1.8982067108154297,3.2449162006378174,3.912811756134033,-1.9966802597045898,-0.7244055271148682,-0.2683005630970001,-0.42272669076919556,0.4738708734512329,-145.6125030517578,-15.5,-24.6875,,,,forward 2.0
1762365256.6240768,5.474255084991455,-0.21183714270591736,5.724390506744385,8.757172584533691,-4.254497528076172,-1.2030324935913086,2.2321016788482666,3.278733730316162,-1.9502544403076172,-0.6975061297416687,-0.27349919080734253,-0.4489752948284149,0.48693379759788513,-147.6374969482422,-15.574999809265137,-27.881250381469727,,,,forward 2.0
1762365256.6400774,8.049811363220215,0.21542760729789734,5.300715923309326,8.907917976379395,-4.053472518920898,-0.6741476058959961,0.8979719281196594,2.6214427947998047,-1.3687107563018799,-0.6794065237045288,-0.26975351572036743,-0.4729672968387604,0.4918757379055023,-149.4562530517578,-15.600000381469727,-29.65625,,,,forward 2.0
1762365256.6694436,9.179610252380371,-1.7150431871414185,2.1303396224975586,9.00503921508789,-3.891521692276001,-0.03812885284423828,-0.09162978827953339,2.8108108043670654,-0.8067147731781006,-0.6609729528427124,-0.25506487488746643,-0.5035978555679321,0.49441468715667725,-152.4562530517578,-18.0625,-32.368751525878906,,,,forward 2.0
1762365256.684497,5.464680194854736,-1.160915493965149,2.649759531021118,8.979483604431152,-3.923491954803467,0.4595661163330078,-0.9028588533401489,3.9726765155792236,-0.4780692458152771,-0.6485027074813843,-0.23668737709522247,-0.5234599709510803,0.4994126856327057,-152.875,-17.450000762939453,-33.79375076293945,,,,forward 2.0
1762365256.6994379,2.094435214996338,-7.830793857574463,10.156214714050293,8.920666694641113,-4.032695770263672,0.6286611557006836,0.7721336483955383,1.1040533781051636,0.671579122543335,-0.6389057040214539,-0.24445375800132751,-0.513395369052887,0.5181382298469543,-152.53125,-16.387500762939453,-35.337501525878906,,,,forward 2.0
1762365256.7294497,3.2278237342834473,1.3165020942687988,12.235091209411621,8.872824668884277,-4.1546244621276855,0.4981651306152344,3.413515090942383,-1.1818042993545532,0.7436612248420715,-0.6351293325424194,-0.2668708860874176,-0.4861171245574951,0.5376622676849365,-151.56875610351562,-15.0,-37.46875,,,,forward 2.0
1762365256.744438,6.833842754364014,7.014562129974365,9.440516471862793,8.79755973815918,-4.3402886390686035,0.031037330627441406,2.14902400970459,-2.97530460357666,1.033211350440979,-0.646321713924408,-0.28405332565307617,-0.4553837180137634,0.5424091219902039,-150.66250610351562,-13.706250190734863,-35.85625076293945,,,,forward 2.0
1762365256.7752173,8.923490524291992,1.7677031755447388,6.5585737228393555,8.660120964050293,-4.573639869689941,-0.5658969879150391,0.5180137157440186,-3.3760323524475098,1.2335751056671143,-0.6639915108680725,-0.2965773046016693,-0.42346304655075073,0.540218710899353,-148.55625915527344,-13.27500057220459,-32.5625,,,,forward 2.0
1762365256.7896733,9.091045379638672,-1.8215601444244385,3.5988378524780273,8.44325065612793,-4.8454999923706055,-1.2119255065917969,0.251676470041275,-3.6716911792755127,1.433938980102539,-0.682797908782959,-0.30912283062934875,-0.387153685092926,0.5369749665260315,-145.9187469482422,-11.175000190734863,-29.875,,,,forward 2.0
1762365256.8044283,9.300488471984863,-2.5935089588165283,0.8521358966827393,8.137655258178711,-5.156997203826904,-1.8493432998657227,0.4349360466003418,-4.016219139099121,1.623307228088379,-0.7010684609413147,-0.3205637037754059,-0.347524493932724,0.533824622631073,-143.1437530517578,-10.0,-28.325000762939453,,,,forward 2.0
1762365256.834361,9.746902465820312,-2.1040096282958984,-3.071040153503418,7.762163162231445,-5.474210739135742,-2.453150749206543,0.34574973583221436,-3.795085906982422,1.9861611127853394,-0.7201492786407471,-0.32621797919273376,-0.3102082312107086,0.5279561281204224,-139.81875610351562,-8.850000381469727,-26.868749618530273,,,,forward 2.0
1762365256.8493607,8.819367408752441,-3.4264957904815674,-6.432907581329346,7.3469038009643555,-5.73311185836792,-3.0644006729125977,-0.3604104816913605,-3.24042010307312,2.050912857055664,-0.7417822480201721,-0.32549455761909485,-0.278359055519104,0.5160704255104065,-137.1374969482422,-8.262499809265137,-25.256250381469727,,,,forward 2.0
1762365256.8930163,7.893028259277344,-5.124783515930176,-9.846238136291504,6.935507774353027,-5.755975246429443,-3.873441696166992,-1.7592918872833252,-2.817701578140259,1.838331699371338,-0.7722358703613281,-0.31792277097702026,-0.25767582654953003,0.4859834611415863,-131.90000915527344,-10.0,-22.512500762939453,,,,forward 2.0
1762365256.9069645,8.796627044677734,-8.887585639953613,-11.955035209655762,6.531463146209717,-5.481006622314453,-4.851256370544434,-4.426329612731934,-2.7138543128967285,1.6245288848876953,-0.8087400197982788,-0.30528727173805237,-0.2461572140455246,0.4383445382118225,-130.71250915527344,-11.350000381469727,-19.23750114440918,,,,forward 2.0
1762365256.9099708,10.189725875854492,-14.189498901367188,-8.439974784851074,6.1739020347595215,-5.152894020080566,-5.6184282302856445,-5.1349334716796875,-2.1970624923706055,1.1908146142959595,-0.8360178470611572,-0.2956964373588562,-0.23578551411628723,0.3975461423397064,-129.5124969482422,-14.33750057220459,-16.58125114440918,,,,forward 2.0
1762365256.9394913,6.885305881500244,-11.154362678527832,-1.4960250854492188,5.872729778289795,-4.745083332061768,-6.263491630554199,-3.4990360736846924,-2.5733554363250732,0.3465988337993622,-0.8547419309616089,-0.2977522015571594,-0.22439488768577576,0.36111879348754883,-128.13125610351562,-16.881250381469727,-16.631250381469727,,,,forward 2.0
1762365256.9544892,-3.657482147216797,1.6552021503448486,-4.276237964630127,5.553954601287842,-4.428581237792969,-6.765894889831543,-3.2876768112182617,-2.0968804359436035,-0.054128777235746384,-0.8703657388687134,-0.29548317193984985,-0.21268236637115479,0.3315407931804657,-125.7249984741211,-18.818750381469727,-14.949999809265137,,,,forward 2.0
1762365256.9974942,-5.396461486816406,-10.596644401550293,-15.533527374267578,5.382315635681152,-4.500062942504883,-6.856833457946777,-1.4147639274597168,-1.608188271522522,0.49931514263153076,-0.8735833764076233,-0.2938264012336731,-0.20277778804302216,0.33075547218322754,-124.66875457763672,-20.98750114440918,-14.324999809265137,,,,forward 2.0
1762365256.9995525,2.9848692417144775,-11.41886043548584,-22.461917877197266,5.496007919311523,-4.752307891845703,-6.5913286209106445,1.3756685256958008,0.35268914699554443,0.44433724880218506,-0.8672922849655151,-0.2894020676612854,-0.2067709118127823,0.34827640652656555,-125.4375,-18.8125,-14.93125057220459,,,,forward 2.0
1762365257.0274968,3.875303268432617,-9.328015327453613,-19.870803833007812,5.8103156089782715,-4.82657527923584,-6.259432792663574,1.2192870378494263,1.9250563383102417,0.1645609736442566,-0.8594921827316284,-0.28338390588760376,-0.2256549596786499,0.3606196641921997,-126.65625,-17.67500114440918,-16.387500762939453,,,,forward 2.0
1762365257.0444973,5.1271772384643555,-8.566838264465332,-15.440176010131836,6.267787456512451,-4.69383430480957,-5.90921688079834,0.08674286305904388,2.8328020572662354,-0.4670736789703369,-0.8513302206993103,-0.27644193172454834,-0.25690746307373047,0.36443814635276794,-129.2312469482422,-17.950000762939453,-17.787500381469727,,,,forward 2.0
