timestamp,accel_x,accel_y,accel_z,gravity_x,gravity_y,gravity_z,gyro_x,gyro_y,gyro_z,orient_x,orient_y,orient_z,orient_w,mag_x,mag_y,mag_z,mag_cal_x,mag_cal_y,mag_cal_z,label
1761153055.6441987,4.091928005218506,-4.369589805603027,8.223350524902344,3.9479990005493164,-4.210954189300537,7.932041168212891,-0.012223439291119576,0.006780603900551796,-0.0019303337903693318,0.20521555840969086,-0.23152349889278412,0.9505668878555298,0.026572076603770256,-144.625,-6.356250286102295,-89.4625015258789,,,,Forward
1761153055.6522048,4.117061138153076,-4.403100967407227,8.250877380371094,3.9508771896362305,-4.2242817878723145,7.923516750335693,-0.00489305704832077,0.010445795953273773,-0.0019303337903693318,0.2054470330476761,-0.23225538432598114,0.950343906879425,0.02636989951133728,-144.71250915527344,-6.525000095367432,-89.20000457763672,,,,Forward
1761153055.6522048,4.131422996520996,-4.388739109039307,8.241302490234375,3.9553611278533936,-4.2187066078186035,7.924250602722168,-0.012223439291119576,0.008002334274351597,-0.0031520642805844545,0.20561715960502625,-0.23202422261238098,0.9503551721572876,0.026674311608076096,-144.3937530517578,-6.125,-88.7874984741211,,,,Forward
1761153055.674196,4.105093002319336,-4.387542247772217,8.218563079833984,3.9535491466522217,-4.230276107788086,7.918984413146973,-0.017110362648963928,0.004337143152952194,-0.0019303337903693318,0.20555241405963898,-0.23265908658504486,0.9502161741256714,0.026591869071125984,-144.90625,-6.525000095367432,-89.4000015258789,,,,Forward
1761153055.7177,4.088337421417236,-4.3624091148376465,8.208989143371582,3.945927143096924,-4.229874134063721,7.923000335693359,-0.009779978543519974,0.0031154127791523933,-0.0007086033001542091,0.20513342320919037,-0.2325890064239502,0.9503252506256104,0.026545168831944466,-144.4187469482422,-6.443749904632568,-88.8125,,,,Forward
1761153055.7206993,4.091928005218506,-4.386345386505127,8.222153663635254,3.933671236038208,-4.232077598571777,7.927916526794434,-0.012223439291119576,-0.0017715092981234193,0.0005131271900609136,0.20448170602321625,-0.23262418806552887,0.9504611492156982,0.02639877237379551,-144.5625,-6.368750095367432,-88.70625305175781,,,,Forward
1761153055.748697,4.094321250915527,-4.381558418273926,8.241302490234375,3.9436275959014893,-4.211796760559082,7.933768272399902,-0.007336517795920372,-0.007880161516368389,0.0005131271900609136,0.20493300259113312,-0.23158371448516846,0.9506088495254517,0.02672576531767845,-145.375,-6.349999904632568,-89.0250015258789,,,,Forward
1761153055.763695,4.096714973449707,-4.376770973205566,8.278404235839844,3.944927215576172,-4.204822063446045,7.936820983886719,-0.013445170596241951,-0.007880161516368389,0.0017348576802760363,0.20496800541877747,-0.23121649026870728,0.9506874084472656,0.026841124519705772,-144.7062530517578,-6.268750190734863,-89.13750457763672,,,,Forward
1761153055.7789352,4.106289386749268,-4.365999698638916,8.270026206970215,3.9591565132141113,-4.194040298461914,7.935441017150879,-0.018332092091441154,-0.006658431142568588,0.0005131271900609136,0.20567846298217773,-0.23073720932006836,0.9506416320800781,0.02715359255671501,-144.3125,-6.25,-88.8812484741211,,,,Forward
1761153055.80912,4.126635551452637,-4.342062950134277,8.273616790771484,3.9820761680603027,-4.186067581176758,7.928178787231445,-0.024440744891762733,-0.007880161516368389,0.0017348576802760363,0.20686647295951843,-0.23047712445259094,0.9504358172416687,0.027537332847714424,-144.5812530517578,-6.375,-89.46875,,,,Forward
1761153055.8231187,4.1697211265563965,-4.352834701538086,8.226941108703613,4.002126693725586,-4.18218469619751,7.920127868652344,-0.01955382339656353,-0.011545353569090366,0.0005131271900609136,0.2079101949930191,-0.23042811453342438,0.9502100944519043,0.027876872569322586,-144.7687530517578,-6.362500190734863,-88.9437484741211,,,,Forward
1761153055.8533885,4.1421942710876465,-4.361212253570557,8.192233085632324,4.000509738922119,-4.197772979736328,7.912694454193115,-0.015888631343841553,-0.005436700768768787,-0.0055955252610147,0.2078673392534256,-0.23128731548786163,0.9500137567520142,0.027769586071372032,-144.2937469482422,-6.231250286102295,-89.1624984741211,,,,Forward
1761153055.868387,4.094321250915527,-4.327701091766357,8.152738571166992,3.991614818572998,-4.219433307647705,7.905663013458252,-0.011001708917319775,-0.002993239788338542,-0.008038986474275589,0.2074618637561798,-0.232423335313797,0.9498329758644104,0.027501918375492096,-144.5625,-6.575000286102295,-88.57500457763672,,,,Forward
1761153055.8833854,4.1206512451171875,-4.405494689941406,8.146754264831543,3.9900190830230713,-4.240240573883057,7.895328521728516,-0.002449595835059881,0.0006719516823068261,-0.006817255634814501,0.20744895935058594,-0.23356513679027557,0.9495610594749451,0.027313189581036568,-144.69375610351562,-6.349999904632568,-88.45000457763672,,,,Forward
1761153055.9133828,4.138603687286377,-4.427037239074707,8.171887397766113,3.9956629276275635,-4.247478008270264,7.888581275939941,0.0024373261258006096,0.006780603900551796,-0.0055955252610147,0.2077706903219223,-0.23401495814323425,0.949379026889801,0.027346087619662285,-144.4812469482422,-6.381249904632568,-89.26875305175781,,,,Forward
1761153055.928384,4.143391132354736,-4.394723415374756,8.149147987365723,3.99566912651062,-4.235931396484375,7.894784450531006,0.0024373261258006096,0.004337143152952194,-0.0019303337903693318,0.20771227777004242,-0.2333904355764389,0.9495406746864319,0.027514394372701645,-144.8562469482422,-6.206250190734863,-89.0062484741211,,,,Forward
1761153055.9583788,4.123044967651367,-4.385148525238037,8.241302490234375,3.9815378189086914,-4.222549915313721,7.909079551696777,0.0024373261258006096,0.008002334274351597,-0.0019303337903693318,0.20686785876750946,-0.23257814347743988,0.9499210715293884,0.027622774243354797,-145.0,-6.487500190734863,-89.125,,,,Forward
1761153055.9733775,4.136209964752197,-4.318126678466797,8.311915397644043,3.9739911556243896,-4.220578193664551,7.913926124572754,-0.030549397692084312,0.011667526327073574,-0.0007086033001542091,0.20635423064231873,-0.23250333964824677,0.9500409960746765,0.027969427406787872,-144.77500915527344,-6.287499904632568,-89.2125015258789,,,,Forward
1761153055.9883764,4.167327404022217,-4.240333557128906,8.594365119934082,3.9709086418151855,-4.280990123748779,7.88296365737915,-0.22480455040931702,-0.013988814316689968,0.002956588286906481,0.20606842637062073,-0.23612238466739655,0.9491860866546631,0.028771406039595604,-144.8874969482422,-6.212500095367432,-89.2562484741211,,,,Forward
1761153056.0193727,3.690993070602417,-3.8525638580322266,9.076683044433594,3.969130754470825,-4.533848762512207,7.741209983825684,-0.8613261580467224,-0.10928378999233246,0.07259522378444672,0.20618340373039246,-0.25086119771003723,0.9453521370887756,0.029435817152261734,-144.75,-6.175000190734863,-88.8812484741211,,,,Forward
1761153056.033372,3.8130686283111572,-3.7137327194213867,8.821760177612305,3.9115850925445557,-5.0581955909729,7.4397759437561035,-2.408036947250366,-0.1984701156616211,0.46477070450782776,0.20374734699726105,-0.28159111738204956,0.9371762871742249,0.029901672154664993,-144.90000915527344,-5.768750190734863,-89.0999984741211,,,,Forward
1761153056.0643606,3.737668991088867,-5.312684059143066,9.277749061584473,3.7376537322998047,-5.7090864181518555,7.047863960266113,-3.641984701156616,0.1558317244052887,0.7714250683784485,0.19513118267059326,-0.3204769790172577,0.9264435172080994,0.03034289740025997,-145.50625610351562,-5.349999904632568,-88.41875457763672,,,,Forward
1761153056.0784357,1.412247657775879,-8.997693061828613,10.95090389251709,3.5012614727020264,-6.3340935707092285,6.6224260330200195,-3.8777787685394287,0.4893641471862793,0.9681236743927002,0.18371325731277466,-0.3587687015533447,0.9147090315818787,0.029014548286795616,-145.16250610351562,-5.075000286102295,-87.41875457763672,,,,Forward
1761153056.0934482,-0.10651698708534241,-7.762574672698975,11.21899127960205,3.1872732639312744,-6.9349284172058105,6.163129806518555,-3.7494969367980957,0.5577810406684875,1.2894388437271118,0.1688917726278305,-0.39667457342147827,0.9019278287887573,0.025517184287309647,-145.18125915527344,-4.325000286102295,-87.03125,,,,Forward
1761153056.1393552,-0.25731632113456726,-9.088651657104492,9.237056732177734,2.798015594482422,-7.495180130004883,5.6771016120910645,-3.770266532897949,0.9792780876159668,1.450707197189331,0.1498708724975586,-0.4338040351867676,0.8881855010986328,0.021892931312322617,-144.52500915527344,-3.768749952316284,-86.3687515258789,,,,Forward
1761153056.1423557,-0.46795663237571716,-10.168183326721191,7.735047817230225,2.3600146770477295,-7.967425346374512,5.21407413482666,-3.54913330078125,1.1637593507766724,1.6156408786773682,0.12909077107906342,-0.46645745635032654,0.8749316334724426,0.01573684997856617,-144.0625,-3.0625,-84.48750305175781,,,,Forward
1761153056.1683652,0.25851312279701233,-11.03468132019043,6.643548011779785,1.894888162612915,-8.331929206848145,4.819178581237793,-2.9065029621124268,1.160094141960144,1.794013500213623,0.10782712697982788,-0.4926941394805908,0.8634675145149231,0.007051414344459772,-143.40625,-2.387500047683716,-84.40625,,,,Forward
1761153056.1834333,1.0065256357192993,-10.64451789855957,5.304306507110596,1.4320622682571411,-8.627033233642578,4.445176601409912,-2.318850517272949,1.0916773080825806,1.9149647951126099,-0.08755531162023544,0.5155293941497803,-0.8523809909820557,0.003182297805324197,-142.3000030517578,-2.018749952316284,-83.55000305175781,,,,Forward
1761153056.1982465,1.8395124673843384,-10.576298713684082,3.9890012741088867,0.9838906526565552,-8.858071327209473,4.099104881286621,-2.1270389556884766,0.9817215204238892,2.031029224395752,-0.06857061386108398,0.5351385474205017,-0.8418576717376709,0.014163369312882423,-140.7687530517578,-1.743749976158142,-82.7562484741211,,,,Forward
1761153056.2289884,2.946570873260498,-9.903685569763184,3.1631953716278076,0.576589822769165,-9.013897895812988,3.827963352203369,-1.7654067277908325,0.8900917768478394,1.9540601968765259,-0.051465634256601334,0.5497691631317139,-0.8333678841590881,0.024559298530220985,-139.125,-1.193750023841858,-81.5374984741211,,,,Forward
1761153056.2439814,2.8663840293884277,-10.528426170349121,3.5138638019561768,0.2238416075706482,-9.086996078491211,3.68951416015625,-1.0653551816940308,0.7789142727851868,1.831887125968933,-0.03737049549818039,0.5572744607925415,-0.8287438750267029,0.035102490335702896,-137.1875,-0.918749988079071,-80.98125457763672,,,,Forward
1761153056.286979,2.7227656841278076,-9.609268188476562,3.325963020324707,-0.1040990948677063,-9.088358879089355,3.691476821899414,-0.27978241443634033,0.5858808755874634,1.718266248703003,-0.024582955986261368,0.5578951835632324,-0.8282704949378967,0.04600703343749046,-136.0437469482422,-0.7562500238418579,-81.54375457763672,,,,Forward
1761153056.300977,2.697632312774658,-8.629072189331055,3.201493740081787,-0.3861197233200073,-9.057085990905762,3.7491626739501953,0.2553355395793915,0.34397822618484497,1.6022018194198608,-0.0141425970941782,0.5556178092956543,-0.829393208026886,0.05653108283877373,-134.16250610351562,-0.42500001192092896,-81.51875305175781,,,,Forward
1761153056.3049805,2.5504236221313477,-7.768558979034424,3.5760984420776367,-0.6306288838386536,-9.01988410949707,3.805274486541748,0.3359697461128235,0.28411343693733215,1.3896206617355347,-0.004984835162758827,0.5531965494155884,-0.8304500579833984,0.06558573246002197,-133.0749969482422,-0.6812500357627869,-82.45625305175781,,,,Forward
1761153056.3339746,1.5917706489562988,-7.483716011047363,3.937537908554077,-0.8491551280021667,-8.994887351989746,3.8219146728515625,0.1991359293460846,0.2780047655105591,1.2234653234481812,0.0029187172185629606,0.5524442195892334,-0.8302573561668396,0.07395640760660172,-131.86875915527344,0.03750000149011612,-82.4749984741211,,,,Forward
1761153056.3489897,0.6917619705200195,-6.824267864227295,4.7202582359313965,-1.061063528060913,-9.016809463500977,3.7158312797546387,-0.21380896866321564,0.1656055748462677,1.1330572366714478,0.00999177061021328,0.5572344064712524,-0.826212465763092,0.08223717659711838,-130.2687530517578,0.3125,-81.7750015258789,,,,Forward
1761153056.378968,0.0610378235578537,-7.008578300476074,6.0762553215026855,-1.2947375774383545,-9.109980583190918,3.4011778831481934,-1.170423984527588,0.26945266127586365,1.0487579107284546,0.01839403249323368,0.5712347030639648,-0.8157118558883667,0.08925659954547882,-129.625,0.23749999701976776,-81.33125305175781,,,,Forward
1761153056.3939672,-1.6001484394073486,-7.318554878234863,6.364688873291016,-1.559791088104248,-9.24616813659668,2.8829703330993652,-2.254098892211914,0.6164241433143616,1.090296745300293,0.029148433357477188,0.5934728384017944,-0.798728346824646,0.09472780674695969,-128.0187530517578,0.5687500238418579,-79.1500015258789,,,,Forward
1761153056.4089663,-3.1105353832244873,-7.920555114746094,5.2707953453063965,-1.8416032791137695,-9.393699645996094,2.145468235015869,-3.1618447303771973,0.9658390283584595,1.02187979221344,0.04170724377036095,0.6236260533332825,-0.7743412852287292,0.09872572869062424,-126.625,0.862500011920929,-77.20000457763672,,,,Forward
1761153056.4519675,-4.733423233032227,-7.895421981811523,2.9286186695098877,-2.1041207313537598,-9.509926795959473,1.170506477355957,-4.24674129486084,1.12344229221344,1.1025140285491943,0.05302625149488449,0.6614600419998169,-0.7410168051719666,0.10272777080535889,-124.73125457763672,0.987500011920929,-73.7874984741211,,,,Forward
1761153056.4549713,-5.397658348083496,-8.302340507507324,1.8071982860565186,-2.317803382873535,-9.532073020935059,-0.05904960632324219,-5.31331205368042,1.0574687719345093,0.8667200207710266,0.06251409649848938,0.7064712643623352,-0.697030782699585,0.10553927719593048,-122.9937515258789,1.2000000476837158,-67.3062515258789,,,,Forward
1761153056.4999669,-5.805774211883545,-8.121621131896973,0.6594478487968445,-2.5244288444519043,-9.355134963989258,-1.5312795639038086,-6.517938137054443,1.277380347251892,0.9363586902618408,0.0725989043712616,0.7568198442459106,-0.6404411792755127,0.10857374966144562,-120.96875,1.9375,-62.625,,,,Forward
1761153056.5029593,-4.702305793762207,-7.431055545806885,-2.3361928462982178,-2.7009551525115967,-8.849297523498535,-3.2605056762695312,-7.804420471191406,1.3885577917099,1.1306138038635254,0.08323711156845093,0.8119447827339172,-0.5669222474098206,0.11142923682928085,-118.2249984741211,1.7937500476837158,-55.88125228881836,,,,Forward
1761153056.5139635,-3.6263647079467773,-9.398628234863281,-7.437039852142334,-2.762030839920044,-8.023472785949707,-4.922515869140625,-9.116559028625488,1.6597819328308105,1.2723345756530762,0.09128062427043915,0.86171954870224,-0.4864141047000885,0.1118416041135788,-116.42500305175781,1.475000023841858,-48.9375,,,,Forward
1761153056.5439594,-3.333143949508667,-16.226486206054688,-12.48762035369873,-2.8637142181396484,-7.310410976409912,-5.881596565246582,-7.6712517738342285,1.1637593507766724,1.031653642654419,0.09702977538108826,0.8890223503112793,-0.431886225938797,0.1170421689748764,-114.9937515258789,1.1750000715255737,-42.79375076293945,,,,Forward
1761153056.5589514,-0.5756704211235046,-18.472917556762695,-13.544412612915039,-3.237881660461426,-7.008857727050781,-6.052122116088867,-3.3304433822631836,-0.30598241090774536,1.4164987802505493,0.10523758083581924,0.8929680585861206,-0.4160498082637787,0.13577815890312195,-113.5062484741211,0.550000011920929,-38.96875,,,,Forward
1761153056.588949,3.3858039379119873,-14.659849166870117,-15.13737964630127,-3.8823513984680176,-6.796370029449463,-5.91378116607666,-0.3518645167350769,-2.127582550048828,1.9161865711212158,0.1128145232796669,0.8880815505981445,-0.41171500086784363,0.17051339149475098,-110.17500305175781,0.5625,-38.03125,,,,Forward
1761153056.6179445,6.157639026641846,-12.05437183380127,-16.02422332763672,-4.749025344848633,-6.410627841949463,-5.708478927612305,-0.6316407918930054,-3.3517565727233887,2.698094129562378,0.12230438739061356,0.880905032157898,-0.4013267457485199,0.2190544605255127,-104.625,0.5250000357627869,-36.40625,,,,Forward
1761153056.6209457,3.7963132858276367,-9.251419067382812,-14.17393970489502,-5.700321197509766,-5.930392742156982,-5.345366477966309,-1.2241801023483276,-4.369458198547363,3.1721255779266357,0.12880003452301025,0.86939936876297,-0.38864657282829285,0.2766030728816986,-99.9124984741211,0.518750011920929,-34.993751525878906,,,,Forward
1761153056.6489432,1.3930985927581787,-8.070158004760742,-11.076569557189941,-6.641323566436768,-5.448452949523926,-4.73744010925293,-0.9150822758674622,-5.141591548919678,3.2466509342193604,0.1345386952161789,0.8505051732063293,-0.37996047735214233,0.33789119124412537,-93.86250305175781,0.856249988079071,-34.56875228881836,,,,Forward
1761153056.663944,-0.44042977690696716,-7.489699840545654,-8.672158241271973,-7.496155261993408,-4.979740619659424,-3.904608726501465,-0.1796005219221115,-5.556980133056641,3.315068006515503,0.14141760766506195,0.8240222930908203,-0.37649670243263245,0.3990471661090851,-85.625,0.2562499940395355,-36.84375,,,,Forward
1761153056.694182,-0.8664976954460144,-4.821988105773926,-5.587952613830566,-8.201207160949707,-4.520072937011719,-2.923227310180664,0.36895647644996643,-5.702365875244141,3.271085739135742,0.14723539352416992,0.7920315265655518,-0.37598860263824463,0.45786505937576294,-80.57500457763672,0.28125,-39.35625076293945,,,,Forward
1761153056.70918,-0.21183714270591736,-4.1757049560546875,-3.3343405723571777,-8.75837516784668,-4.004762172698975,-1.8678531646728516,0.6682804226875305,-5.757343769073486,3.069500207901001,0.15150593221187592,0.7564703822135925,-0.3730505704879761,0.5153948664665222,-76.7125015258789,-0.08125000447034836,-42.95000076293945,,,,Forward
1761153056.7241704,0.9347164630889893,-3.1428494453430176,1.253070592880249,-9.136475563049316,-3.464651107788086,-0.8701353073120117,0.05252827703952789,-5.644944667816162,3.0621697902679443,0.15130580961704254,0.7221190929412842,-0.36369314789772034,0.5686632990837097,-72.6937484741211,-0.26250001788139343,-46.15625,,,,Forward
1761153056.7542582,1.5367169380187988,-2.044168710708618,8.016301155090332,-9.328451156616211,-3.0357470512390137,-0.018045425415039062,-0.38607296347618103,-4.9510016441345215,2.5881383419036865,0.15152467787265778,0.6913465261459351,-0.3573695123195648,0.6093990802764893,-69.14375305175781,-0.699999988079071,-50.20000076293945,,,,Forward
1761153056.7691722,-0.6307241916656494,0.42846158146858215,8.623088836669922,-9.412732124328613,-2.692139148712158,0.6236715316772461,0.7501363754272461,-3.5631158351898193,1.8208914995193481,0.1593356430530548,0.6654506921768188,-0.3582790791988373,0.6351563930511475,-68.5250015258789,-0.7562500238418579,-54.03125,,,,Forward
1761153056.7991884,-2.0417749881744385,1.9747531414031982,9.812727928161621,-9.449387550354004,-2.4640533924102783,0.9346857070922852,0.702488899230957,-2.1263608932495117,1.5887627601623535,0.16341203451156616,0.6524239778518677,-0.3551143407821655,0.6492559909820557,-67.45000457763672,-1.337499976158142,-55.98749923706055,,,,Forward
1761153056.8141873,-0.8892372846603394,6.6208086013793945,15.316903114318848,-9.45882511138916,-2.4729321002960205,0.8070592880249023,-0.20281340181827545,-0.5051244497299194,0.4378926455974579,0.16195064783096313,0.6577517986297607,-0.35082295536994934,0.6465739011764526,-67.26875305175781,-0.9750000238418579,-55.42499923706055,,,,Forward
1761153056.8281746,-3.4121339321136475,4.7824931144714355,16.589122772216797,-9.457612991333008,-2.5902585983276367,0.2832374572753906,-0.5729977488517761,1.7831767797470093,-0.40998831391334534,0.16587430238723755,0.6767935752868652,-0.3486856520175934,0.6267811059951782,-68.1624984741211,-1.368749976158142,-52.806251525878906,,,,Forward
1761153056.858173,-5.805774211883545,0.10532016307115555,10.024564743041992,-9.3908109664917,-2.797698736190796,-0.47081661224365234,0.12338864803314209,3.4606127738952637,-0.8119376301765442,0.17522352933883667,0.702348530292511,-0.3511832654476166,0.593863308429718,-70.0562515258789,-1.024999976158142,-48.66250228881836,,,,Forward
1761153056.8731778,-8.921096801757812,0.1400279402732849,4.543128967285156,-9.209189414978027,-3.0851120948791504,-1.3816814422607422,0.5839810371398926,4.529626846313477,-1.3067384958267212,0.18576689064502716,0.7320606112480164,-0.35466086864471436,0.5511748194694519,-71.48125457763672,-0.956250011920929,-46.08124923706055,,,,Forward
1761153056.8885427,-14.264898300170898,0.9335196614265442,-1.366768479347229,-8.90618896484375,-3.371882438659668,-2.355062484741211,0.3457435965538025,5.166148662567139,-1.7209051847457886,0.19156846404075623,0.7637639045715332,-0.3519477844238281,0.5060622096061707,-72.84375,-0.16875000298023224,-43.775001525878906,,,,Forward
1761153056.9185407,-16.775827407836914,0.7061238288879395,-4.666401386260986,-8.534744262695312,-3.5414681434631348,-3.294279098510742,-0.7721397876739502,4.833837985992432,-1.5987321138381958,0.18854756653308868,0.7952068448066711,-0.3377068340778351,0.46695825457572937,-74.75,-0.23125000298023224,-40.14374923706055,,,,Forward
1761153056.9335365,-15.557463645935059,-2.1315364837646484,-8.062976837158203,-8.108981132507324,-3.5537590980529785,-4.225088119506836,-2.1404778957366943,4.133786201477051,-1.674479365348816,0.17323529720306396,0.8278499245643616,-0.30970528721809387,0.4344384968280792,-76.5625,-0.20624999701976776,-36.743751525878906,,,,Forward
1761153056.964538,-12.21235179901123,-2.477417469024658,-13.172201156616211,-7.705860137939453,-3.1192710399627686,-5.2082624435424805,-4.706111907958984,3.587672710418701,-1.2994080781936646,0.1487531065940857,0.8621654510498047,-0.2553956210613251,0.41148069500923157,-78.01875305175781,-1.118749976158142,-29.731250762939453,,,,Forward
1761153056.97853,-7.277862548828125,-9.343574523925781,-12.33203411102295,-7.325244903564453,-2.8344106674194336,-5.8773298263549805,-6.229609966278076,3.042780876159668,-0.763068437576294,0.13050489127635956,0.8846052885055542,-0.22077147662639618,0.38948923349380493,-81.8187484741211,-1.743749976158142,-24.793750762939453,,,,Forward
1761153057.0075197,-0.09095832705497742,-16.373695373535156,-11.484684944152832,-7.277878761291504,-2.943521022796631,-5.882538795471191,-0.6023192405700684,1.532721996307373,-0.6665517091751099,0.13502031564712524,0.8840775489807129,-0.22845010459423065,0.38469070196151733,-83.375,-1.431249976158142,-24.493749618530273,,,,Forward
1761153057.0235252,6.3934125900268555,-11.353034973144531,-24.577896118164062,-7.547880172729492,-2.9273571968078613,-5.540413856506348,0.9957042336463928,-0.9534995555877686,0.481874942779541,0.13788141310214996,0.8737131953239441,-0.23441600799560547,0.40331512689590454,-81.58125305175781,-1.4250000715255737,-25.381250381469727,,,,Forward
1761153057.0385242,2.1506855487823486,-5.334227085113525,-20.063491821289062,-7.9888434410095215,-2.8334834575653076,-4.938202857971191,0.6084156632423401,-3.104966878890991,0.833733320236206,0.14100147783756256,0.855459451675415,-0.2407323122024536,0.4362976551055908,-79.30000305175781,-1.25,-27.325000762939453,,,,Forward
1761153057.0685234,-5.628644943237305,-3.787935495376587,-12.87060260772705,-8.484601020812988,-2.6323423385620117,-4.161541938781738,0.541220486164093,-4.250950336456299,1.1733744144439697,0.14218971133232117,0.831798791885376,-0.24306565523147583,0.4783429205417633,-73.41875457763672,-1.6437500715255737,-31.14375114440918,,,,Forward
1761153057.0835195,-6.548999309539795,-4.667598247528076,-7.997151851654053,-8.928987503051758,-2.4066643714904785,-3.2737274169921875,-0.07575342804193497,-4.722537994384766,1.4177204370498657,0.14091549813747406,0.8043627738952637,-0.24412491917610168,0.5230167508125305,-71.03125,-1.743749976158142,-33.875,,,,Forward
1761153057.0985186,-4.8854193687438965,-6.8003315925598145,-5.714815616607666,-9.308418273925781,-2.1789650917053223,-2.2003583908081055,0.36406955122947693,-5.217339038848877,1.3896206617355347,0.14351648092269897,0.7691240310668945,-0.2507673501968384,0.5700588226318359,-68.5062484741211,-1.6875,-37.275001525878906,,,,Forward
1761153057.1288633,-2.8831396102905273,-5.474255084991455,-1.6456276178359985,-9.569791793823242,-1.8970882892608643,-1.0277471542358398,1.1618595123291016,-5.6156229972839355,1.6938315629959106,0.1495569795370102,0.728021502494812,-0.2594958245754242,0.6166679859161377,-66.20625305175781,-1.7000000476837158,-42.181251525878906,,,,Forward
1761153057.143861,-1.8239537477493286,-3.6754343509674072,9.185593605041504,-9.676492691040039,-1.6101174354553223,-0.0955352783203125,1.624895453453064,-5.2833123207092285,1.7427008152008057,0.16248013079166412,0.691714882850647,-0.27115949988365173,0.6493098735809326,-64.3125,-2.1000001430511475,-46.73125076293945,,,,Forward
1761153057.1738782,-5.041006088256836,1.2135754823684692,10.238795280456543,-9.691593170166016,-1.45817232131958,0.4276142120361328,2.408024549484253,-2.883833646774292,1.0011104345321655,0.17391477525234222,0.6692972779273987,-0.28366580605506897,0.6643255949020386,-64.9312515258789,-1.962499976158142,-50.66250228881836,,,,Forward
1761153057.188866,-5.937424182891846,4.140997409820557,14.154790878295898,-9.682031631469727,-1.4383490085601807,0.6523189544677734,0.8698659539222717,-1.5936863422393799,0.4879835844039917,0.17840082943439484,0.6594887971878052,-0.29219815135002136,0.6692293286323547,-65.33125305175781,-1.993749976158142,-52.400001525878906,,,,Forward
1761153057.2038655,0.1771293729543686,8.650615692138672,20.142480850219727,-9.670980453491211,-1.6323177814483643,0.20923709869384766,1.4795094728469849,0.5883243083953857,-0.6372302174568176,0.1914302557706833,0.6728224158287048,-0.30722329020500183,0.6451963186264038,-66.3687515258789,-2.3812501430511475,-51.962501525878906,,,,Forward
1761153057.2338552,-5.6358256340026855,9.754083633422852,19.016273498535156,-9.581357955932617,-1.9958934783935547,-0.6708984375,1.8191505670547485,4.1105732917785645,-1.486332893371582,0.2050682157278061,0.7015280723571777,-0.3210609555244446,0.602266788482666,-67.60625457763672,-1.600000023841858,-49.78750228881836,,,,Forward
1761153057.248852,-9.585331916809082,3.5784919261932373,7.565099716186523,-9.353837013244629,-2.3828628063201904,-1.750380516052246,1.33901047706604,5.117279052734375,-2.0434420108795166,0.21506913006305695,0.7368577718734741,-0.3259020745754242,0.5518820881843567,-69.38750457763672,-1.3562500476837158,-46.056251525878906,,,,Forward
1761153057.2930636,-13.75265884399414,0.7097142934799194,-2.732340097427368,-8.979090690612793,-2.630063772201538,-2.948697090148926,0.34207838773727417,6.326792240142822,-1.6366057395935059,0.22295966744422913,0.774970531463623,-0.3166621923446655,0.4994344413280487,-72.1937484741211,-1.087499976158142,-39.66875076293945,,,,Forward
1761153057.2959967,-16.488590240478516,-1.9328644275665283,-6.763230323791504,-8.540424346923828,-2.8270864486694336,-3.912139892578125,-1.158206582069397,5.488685131072998,-1.5901799201965332,0.22126981616020203,0.8064956068992615,-0.303871750831604,0.45636215806007385,-73.32500457763672,-0.8812500238418579,-36.36249923706055,,,,Forward
1761153057.3089912,-15.529936790466309,-4.786083221435547,-12.66115951538086,-8.094383239746094,-2.9418649673461914,-4.697077751159668,-0.7306009531021118,4.18754243850708,-2.148510694503784,0.20888349413871765,0.8341284394264221,-0.285700261592865,0.42305195331573486,-74.9625015258789,-0.78125,-34.46875,,,,Forward
1761153057.3389885,-11.893998146057129,-3.5294222831726074,-21.055654525756836,-7.78220272064209,-2.503159999847412,-5.422880172729492,-4.138007164001465,3.1698408126831055,-1.0196318626403809,0.18563240766525269,0.8613571524620056,-0.2363796979188919,0.40954750776290894,-74.80000305175781,-1.2625000476837158,-30.512500762939453,,,,Forward
1761153057.3536425,-9.105406761169434,-9.587725639343262,-10.64571475982666,-7.5872392654418945,-2.2898974418640137,-5.781547546386719,-6.130649566650391,1.4337618350982666,-0.6042434573173523,0.1670369654893875,0.8756568431854248,-0.2098902314901352,0.4015842378139496,-76.4312515258789,-1.506250023841858,-25.756250381469727,,,,Forward
1761153057.3956347,2.6401851177215576,-13.43071460723877,-11.493062973022461,-7.625445365905762,-2.3506088256835938,-5.706430435180664,0.8613138794898987,0.7691404223442078,-0.5236092805862427,0.17056991159915924,0.8727849125862122,-0.21604500710964203,0.4030843675136566,-78.01875305175781,-2.012500047683716,-24.73750114440918,,,,Forward
1761153057.398635,7.449007987976074,-12.13814926147461,-19.224519729614258,-7.886431694030762,-2.4073376655578613,-5.314605712890625,0.14415806531906128,-1.5374867916107178,0.8667200207710266,0.1772133857011795,0.8599258065223694,-0.22927625477313995,0.42018505930900574,-76.5687484741211,-1.7062500715255737,-26.26875114440918,,,,Forward
1761153057.4136379,-0.8688913583755493,-3.0327420234680176,-19.352581024169922,-8.293699264526367,-2.5247747898101807,-4.590884208679199,2.40558123588562,-2.897272825241089,0.48920533061027527,0.18362295627593994,0.8368229269981384,-0.2524638772010803,0.4497467577457428,-73.6875,-1.3562500476837158,-30.17500114440918,,,,Forward
1761153057.4436307,-5.917078495025635,0.39136016368865967,-13.8675537109375,-8.728719711303711,-2.4925599098205566,-3.719235420227051,1.7336294651031494,-4.368236064910889,0.7714250683784485,0.181065633893013,0.8104188442230225,-0.2661265432834625,0.48950305581092834,-70.14375305175781,-1.3000000715255737,-34.59375,,,,Forward
1761153057.4586291,-5.587952613830566,-2.458268404006958,-9.221498489379883,-9.115005493164062,-2.38685941696167,-2.7305145263671875,0.06352385133504868,-5.153809070587158,0.5625091791152954,0.16927474737167358,0.7813552618026733,-0.2717532217502594,0.5357054471969604,-67.6875,-1.15625,-37.63750076293945,,,,Forward
1761153057.4886267,-3.063859462738037,-3.5354063510894775,-5.249252796173096,-9.391417503356934,-2.3241682052612305,-1.623464584350586,-0.07086650282144547,-5.581414699554443,0.44033610820770264,0.15834420919418335,0.7467747330665588,-0.2818661630153656,0.5812109112739563,-66.0999984741211,-1.6437500715255737,-43.11249923706055,,,,Forward
1761153057.5036252,-2.995640516281128,-5.306700229644775,-1.073547601699829,-9.552757263183594,-2.1969153881073,-0.3930540084838867,0.8417661786079407,-5.877073287963867,0.682238757610321,0.15456606447696686,0.7043739557266235,-0.29638007283210754,0.6261992454528809,-64.98125457763672,-1.4812500476837158,-47.962501525878906,,,,Forward
1761153057.5186245,-3.3690483570098877,-6.854188442230225,10.107145309448242,-9.600960731506348,-1.9049627780914307,0.6548280715942383,1.6786515712738037,-5.632727146148682,1.1342790126800537,0.16424980759620667,0.6630584001541138,-0.31021344661712646,0.661168098449707,-63.70000076293945,-1.4812500476837158,-52.67499923706055,,,,Forward
1761153057.5486238,-4.923717498779297,-0.9502751231193542,15.588581085205078,-9.585410118103027,-1.702345609664917,1.2074947357177734,2.681692361831665,-3.350534677505493,1.2894388437271118,0.18044012784957886,0.6371006965637207,-0.3271324038505554,0.6741873025894165,-63.79999923706055,-1.7687500715255737,-56.78750228881836,,,,Forward
1761153057.5636194,-9.890521049499512,5.790215492248535,14.41689395904541,-9.525815963745117,-1.7810471057891846,1.5240802764892578,1.955984354019165,-1.4959479570388794,0.08969945460557938,0.17816294729709625,0.6249624490737915,-0.3391578495502472,0.6801851987838745,-65.05000305175781,-1.96875,-58.087501525878906,,,,Forward
1761153057.607854,4.8519086837768555,10.295045852661133,21.56430435180664,-9.538260459899902,-1.9883992671966553,1.1419095993041992,-0.08308380842208862,-0.6248540878295898,-1.0404012203216553,0.18245545029640198,0.6391468644142151,-0.34738752245903015,0.6614553332328796,-67.10625457763672,-1.9812500476837158,-57.67499923706055,,,,Forward
1761153057.6108534,-0.6534637212753296,5.258827209472656,22.26205062866211,-9.51793384552002,-2.370842695236206,0.15542125701904297,1.577247977256775,4.653021812438965,-1.5400890111923218,0.20164421200752258,0.6718764901161194,-0.3637807369232178,0.6128500699996948,-68.48750305175781,-1.350000023841858,-54.85000228881836,,,,Forward
1761153057.6378417,-8.001938819885254,3.682615280151367,8.498619079589844,-9.331664085388184,-2.8850553035736084,-0.9124946594238281,2.1355788707733154,5.779457092285156,-2.507699489593506,0.21896572411060333,0.7060894966125488,-0.38054782152175903,0.5555854439735413,-69.5562515258789,-0.78125,-51.60000228881836,,,,Forward
1761153057.6538396,-12.30091667175293,1.397885799407959,-2.6904513835906982,-8.997036933898926,-3.28424334526062,-2.1220741271972656,1.5124962329864502,6.273036479949951,-2.56634259223938,0.2277691513299942,0.7458417415618896,-0.37703198194503784,0.49968817830085754,-70.70000457763672,-0.09375,-48.42499923706055,,,,Forward
1761153057.6688375,-17.213863372802734,-1.9113216400146484,-5.080501079559326,-8.620347023010254,-3.404146909713745,-3.215207099914551,-2.173464775085449,5.725700855255127,-1.7111313343048096,0.22328777611255646,0.7835920453071594,-0.35256871581077576,0.46024075150489807,-71.96875,-0.41875001788139343,-43.66875076293945,,,,Forward
1761153057.6988347,-13.42353343963623,-10.686406135559082,-10.01020336151123,-8.094158172607422,-3.689392566680908,-4.136314392089844,-1.7397503852844238,4.6579084396362305,-2.231588363647461,0.20816563069820404,0.816999614238739,-0.3369462192058563,0.41910138726234436,-74.5687484741211,-0.39375001192092896,-38.16875076293945,,,,Forward
1761153057.7138393,-11.040664672851562,-5.196592807769775,-19.479442596435547,-7.706547260284424,-3.4175188541412354,-5.016550064086914,-3.4330687522888184,3.657311201095581,-1.7270138263702393,0.1889147162437439,0.8485262393951416,-0.2937793731689453,0.3975023031234741,-76.17500305175781,-0.45625001192092896,-32.993751525878906,,,,Forward
1761153057.7280545,-10.309408187866211,-13.76223373413086,-16.075687408447266,-7.4934468269348145,-3.1411819458007812,-5.497031211853027,-5.087291717529297,2.0189707279205322,-0.5639263391494751,0.1698940247297287,0.8667819499969482,-0.2610442042350769,0.38946259021759033,-77.35625457763672,-0.762499988079071,-29.25,,,,Forward
1761153057.7580473,-2.4881889820098877,-9.505145072937012,-6.231842041015625,-7.479740142822266,-3.2525362968444824,-5.450741767883301,-0.6487450003623962,0.5858808755874634,-0.26826757192611694,0.1700611561536789,0.8653870820999146,-0.2677927315235138,0.3879064619541168,-77.95000457763672,-1.09375,-29.106250762939453,,,,Forward
1761153057.7740357,7.069615840911865,-9.634401321411133,-17.0726375579834,-7.699906349182129,-3.254650592803955,-5.13369083404541,0.5228945016860962,-1.1929587125778198,0.07259522378444672,0.1728987693786621,0.8554309010505676,-0.2753960192203522,0.40311411023139954,-77.88750457763672,-0.8187500238418579,-28.918750762939453,,,,Forward
1761153057.804033,2.430741548538208,-7.954066276550293,-19.174253463745117,-8.028873443603516,-3.3381423950195312,-4.542035102844238,1.4611835479736328,-2.3010683059692383,0.32427170872688293,0.17650657892227173,0.836866557598114,-0.2933889627456665,0.42710959911346436,-74.9375,-0.875,-33.28125,,,,Forward
1761153057.818485,-5.394067764282227,-0.2860400080680847,-16.18938446044922,-8.451576232910156,-3.3100929260253906,-3.7215957641601562,1.6371127367019653,-3.922304630279541,0.8667200207710266,0.1734188348054886,0.8121635913848877,-0.30698516964912415,0.46484020352363586,-72.48750305175781,-0.731249988079071,-36.993751525878906,,,,Forward
1761153057.8490915,-6.440088748931885,-1.6563990116119385,-9.833073616027832,-8.81822395324707,-3.2324695587158203,-2.833054542541504,0.3152003288269043,-4.776294231414795,0.4574403166770935,0.1609330177307129,0.786445677280426,-0.31331866979599,0.5073807835578918,-70.4375,-0.7875000238418579,-39.98749923706055,,,,Forward
1761153057.8630953,-4.859089374542236,-5.051777362823486,-5.596330642700195,-9.112815856933594,-3.148831605911255,-1.810403823852539,0.029315397143363953,-5.236886501312256,0.5270789861679077,0.15030716359615326,0.7547722458839417,-0.32239603996276855,0.551169216632843,-69.09375,-0.7562500238418579,-42.96875,,,,Forward
1761153057.8780987,-4.024905681610107,-6.502323150634766,-2.059727430343628,-9.32343864440918,-2.9870338439941406,-0.6222763061523438,1.054347276687622,-5.473902225494385,0.8288463950157166,0.14860793948173523,0.7138852477073669,-0.3372165262699127,0.595456600189209,-68.1875,-1.0500000715255737,-46.76250076293945,,,,Forward
1761153057.9080915,-4.0320868492126465,-6.805119037628174,7.8870439529418945,-9.439911842346191,-2.624390125274658,0.4865732192993164,1.8423634767532349,-5.600962162017822,1.5325632095336914,0.1568528562784195,0.6712654829025269,-0.3477626442909241,0.6355006098747253,-66.53125,-1.193750023841858,-54.3125,,,,Forward
1761153057.9240897,-4.306158542633057,-3.3439152240753174,13.261962890625,-9.463081359863281,-2.3121039867401123,1.1577587127685547,2.2834081649780273,-3.857553005218506,1.8929736614227295,0.17212963104248047,0.6413753032684326,-0.3596527874469757,0.6554838418960571,-65.90625,-1.131250023841858,-57.775001525878906,,,,Forward
1761153057.9384708,-10.382413864135742,2.8867299556732178,12.062748908996582,-9.408732414245605,-2.2589023113250732,1.6153125762939453,2.014627456665039,-1.906449317932129,0.6846821904182434,0.17149601876735687,0.6231045126914978,-0.3686647117137909,0.6681439280509949,-67.3187484741211,-1.287500023841858,-60.73749923706055,,,,Forward
1761153057.9690876,2.4331352710723877,9.889324188232422,21.09874153137207,-9.393951416015625,-2.4005250930786133,1.4924020767211914,-0.21991762518882751,-2.0872654914855957,-0.4661879241466522,0.17099672555923462,0.6282473802566528,-0.37444204092025757,0.6601957678794861,-68.6187515258789,-1.1687500476837158,-61.962501525878906,,,,Forward
1761153057.9830866,3.0423166751861572,7.415497303009033,27.625,-9.433443069458008,-2.6526386737823486,0.45800113677978516,0.7977838516235352,4.401345252990723,-1.1760133504867554,0.19197045266628265,0.6631770133972168,-0.3817484676837921,0.6145011782646179,-68.7562484741211,-1.3000000715255737,-58.650001525878906,,,,Forward
1761153058.0130842,-7.451401710510254,3.175163507461548,12.57139778137207,-9.3101806640625,-3.016578197479248,-0.6759548187255859,1.5711392164230347,6.1789631843566895,-1.7196834087371826,0.21195700764656067,0.6996617317199707,-0.38946786522865295,0.5602343678474426,-71.0687484741211,-0.831250011920929,-52.38750076293945,,,,Forward
1761153058.0280828,-10.026958465576172,0.2070498764514923,-1.1716868877410889,-9.026655197143555,-3.277930736541748,-2.002695083618164,0.9529436230659485,6.468513011932373,-1.7734395265579224,0.230754554271698,0.7408282160758972,-0.38190484046936035,0.5020703077316284,-71.98125457763672,-0.26875001192092896,-48.53125,,,,Forward
1761153058.0430813,-17.627962112426758,-0.9071896076202393,-7.732654571533203,-8.686467170715332,-3.2369015216827393,-3.2099695205688477,-1.6139121055603027,6.888788223266602,-0.9646539688110352,0.23294591903686523,0.780604362487793,-0.3494798243045807,0.4628790616989136,-71.2249984741211,-0.36250001192092896,-43.79375076293945,,,,Forward
1761153058.0734744,-14.510246276855469,-6.157639026641846,-10.99997329711914,-8.22770881652832,-3.397627115249634,-4.122751235961914,-2.3445069789886475,4.130121231079102,-1.3861509561538696,0.21771451830863953,0.8140825629234314,-0.3270883560180664,0.4276485741138458,-73.23125457763672,-0.13125000894069672,-40.150001525878906,,,,Forward
1761153058.088469,-13.26555347442627,-4.386345386505127,-21.24116325378418,-7.908576488494873,-3.0020923614501953,-4.967695236206055,-3.918095827102661,3.3518786430358887,-1.455789566040039,0.1969863921403885,0.8452170491218567,-0.277127206325531,0.41231679916381836,-73.6812515258789,-0.581250011920929,-35.36249923706055,,,,Forward
1761153058.1184623,-11.64266586303711,-17.69857406616211,-20.84381866455078,-7.8071088790893555,-2.5035500526428223,-5.386782646179199,-5.765352249145508,1.8027244806289673,-0.19252029061317444,0.1740177869796753,0.8627128601074219,-0.2315240353345871,0.41453713178634644,-74.35625457763672,-1.368749976158142,-28.881250381469727,,,,Forward
1761153058.145463,-1.3200925588607788,-5.097256660461426,-1.6336593627929688,-7.808460235595703,-2.612621784210205,-5.332758903503418,-1.6969897747039795,0.24501805007457733,-0.4625227153301239,0.17611359059810638,0.8606893420219421,-0.23931117355823517,0.41343456506729126,-75.5625,-1.568750023841858,-28.6875,,,,Forward
1761153058.1484792,7.380789279937744,-11.52896785736084,-16.20973014831543,-7.997239589691162,-2.601257801055908,-5.051112174987793,0.42393434047698975,-1.1721893548965454,0.38902342319488525,0.179780974984169,0.8515432476997375,-0.24579821527004242,0.42677414417266846,-75.1187515258789,-1.368749976158142,-29.39375114440918,,,,Forward
1761153058.178561,1.2506769895553589,-7.113898277282715,-19.606306076049805,-8.29310417175293,-2.7675585746765137,-4.449847221374512,1.8044898509979248,-1.72929847240448,0.2448592185974121,0.18490903079509735,0.8322320580482483,-0.26905763149261475,0.4481142461299896,-73.95625305175781,-1.3875000476837158,-32.3125,,,,Forward
1761153058.193618,-7.417890548706055,1.7102558612823486,-15.132593154907227,-8.679485321044922,-2.8466880321502686,-3.57757568359375,2.2076609134674072,-4.242398262023926,0.4586620628833771,0.1806056797504425,0.8060551285743713,-0.2884877622127533,0.4841814339160919,-70.70625305175781,-0.9125000238418579,-36.10625076293945,,,,Forward
1761153058.2386124,-6.465221881866455,-1.0041320323944092,-8.643434524536133,-8.982189178466797,-2.885411024093628,-2.689016342163086,0.6023070216178894,-4.593034744262695,-0.14609453082084656,0.16612155735492706,0.7806782126426697,-0.29960060119628906,0.5226707458496094,-68.3187484741211,-1.2000000476837158,-41.35000228881836,,,,Forward
1761153058.2416124,-4.981164932250977,-4.942866802215576,-5.297125339508057,-9.220314025878906,-2.9004907608032227,-1.6760225296020508,0.1478232592344284,-5.071952819824219,0.017617354169487953,0.15278810262680054,0.7497199177742004,-0.31197136640548706,0.5632492303848267,-68.20625305175781,-0.918749988079071,-44.08124923706055,,,,Forward
1761153058.253611,-4.409085273742676,-6.523866176605225,-0.7527998089790344,-9.381555557250977,-2.8218681812286377,-0.5095062255859375,0.9981476664543152,-5.328516483306885,0.3670322597026825,0.14816303551197052,0.7099411487579346,-0.32882967591285706,0.6048986315727234,-68.39375305175781,-1.181249976158142,-47.9375,,,,Forward
1761153058.283608,-4.447383403778076,-8.918703079223633,8.667370796203613,-9.465373992919922,-2.5173325538635254,0.5530366897583008,2.0439488887786865,-5.40915060043335,1.1342790126800537,0.15985780954360962,0.6680254936218262,-0.34511926770210266,0.639593780040741,-67.7437515258789,-0.71875,-53.16250228881836,,,,Forward
1761153058.2986073,-5.093666076660156,-4.137406826019287,11.369790077209473,-9.467849731445312,-2.261058807373047,1.218003273010254,2.963912010192871,-3.405512571334839,1.5716584920883179,0.17629869282245636,0.6378393769264221,-0.3621232807636261,0.6564650535583496,-67.3187484741211,-1.024999976158142,-59.48125076293945,,,,Forward
1761153058.328036,-8.496225357055664,4.160146713256836,13.40438461303711,-9.403595924377441,-2.2531578540802,1.652801513671875,2.193000078201294,-2.099482774734497,0.3768061101436615,0.17456145584583282,0.6207154393196106,-0.3726861774921417,0.6673421859741211,-67.8687515258789,-1.337499976158142,-61.98125076293945,,,,Forward
1761153058.3429284,7.252729415893555,9.779216766357422,21.66962432861328,-9.446046829223633,-2.344773769378662,1.2289667129516602,-0.1857091635465622,-0.90096515417099,-0.4063231348991394,0.18248771131038666,0.6356569528579712,-0.374577134847641,0.6498695611953735,-68.3812484741211,-1.4812500476837158,-60.60625076293945,,,,Forward
1761153058.358925,-0.5277976393699646,5.899126052856445,23.827489852905273,-9.479057312011719,-2.5237910747528076,0.1186532974243164,0.844209611415863,5.175922393798828,-0.781394362449646,0.20632074773311615,0.6718513369560242,-0.376762717962265,0.6034048795700073,-68.2562484741211,-1.306249976158142,-56.5625,,,,Forward
1761153058.387925,-7.949278831481934,1.9568008184432983,8.351409912109375,-9.342439651489258,-2.7752153873443604,-1.1194419860839844,1.3438974618911743,6.306023120880127,-1.2615344524383545,0.22920960187911987,0.7102950811386108,-0.37628623843193054,0.5489559769630432,-70.17500305175781,-0.7437500357627869,-53.41875076293945,,,,Forward
1761153058.4029274,-11.106490135192871,0.3901633322238922,-3.8441860675811768,-9.037403106689453,-2.865767240524292,-2.519688606262207,0.4911295175552368,7.0586090087890625,-1.1075963973999023,0.24839212000370026,0.7528119683265686,-0.3570409417152405,0.49406203627586365,-70.7562484741211,-0.543749988079071,-45.75625228881836,,,,Forward
1761153058.4332068,-19.601518630981445,2.2212979793548584,-6.7237348556518555,-8.724035263061523,-2.7628276348114014,-3.5347023010253906,-2.348172187805176,5.919956207275391,-0.3965492844581604,0.25144582986831665,0.7854508757591248,-0.3269977271556854,0.4614265263080597,-70.41875457763672,-0.824999988079071,-41.337501525878906,,,,Forward
1761153058.462583,-13.48457145690918,-5.391674518585205,-10.3441162109375,-8.26159954071045,-2.8793087005615234,-4.437528610229492,-1.7556328773498535,4.4147844314575195,-1.3629380464553833,0.23915128409862518,0.817912220954895,-0.30396807193756104,0.4259456396102905,-72.07500457763672,-0.4749999940395355,-37.95624923706055,,,,Forward
1761153058.4655876,-12.175250053405762,-2.567178964614868,-17.807485580444336,-7.896671295166016,-2.518493890762329,-5.247465133666992,-3.755605697631836,3.498486280441284,-1.2163304090499878,0.22145485877990723,0.847592294216156,-0.25790607929229736,0.4074672758579254,-72.9312515258789,-0.75,-33.14374923706055,,,,Forward
1761153058.49358,-11.264470100402832,-14.565299987792969,-21.097543716430664,-7.7211689949035645,-2.095925807952881,-5.676860809326172,-4.588825702667236,2.3708291053771973,-0.39532753825187683,0.20803846418857574,0.8637479543685913,-0.2206161469221115,0.40247732400894165,-74.9749984741211,-1.181249976158142,-29.137500762939453,,,,Forward
1761153058.5085793,-11.55051040649414,-5.605905055999756,-3.546177864074707,-7.686069011688232,-2.16079044342041,-5.700125694274902,-2.684148073196411,0.3476434051990509,0.23875057697296143,0.2049914002418518,0.8651617169380188,-0.22211366891860962,0.40017399191856384,-74.3499984741211,-1.693750023841858,-28.481250762939453,,,,Forward
1761153058.5385761,5.727980613708496,-3.945915699005127,-6.3180131912231445,-7.7284255027771,-2.4093785285949707,-5.54097843170166,2.006075382232666,-0.16914857923984528,-0.8889066576957703,0.20210476219654083,0.8611437082290649,-0.2369081974029541,0.40182051062583923,-75.03125,-1.556249976158142,-29.17500114440918,,,,Forward
1761153058.5665734,7.9145708084106445,-9.355542182922363,-17.919986724853516,-7.870189666748047,-2.519421339035034,-5.286656379699707,0.37873032689094543,-1.1636371612548828,-0.16075529158115387,0.2017168402671814,0.8536760210990906,-0.24762561917304993,0.41137465834617615,-74.7437515258789,-1.350000023841858,-29.1875,,,,Forward
1761153058.5695734,-5.726783752441406,-5.246859073638916,-16.280344009399414,-8.214335441589355,-2.752609968185425,-4.602606773376465,1.5723609924316406,-2.47088885307312,-0.14975972473621368,0.1975478082895279,0.8340038061141968,-0.2718738615512848,0.43760403990745544,-72.875,-1.25,-32.60000228881836,,,,Forward
1761153058.598571,-3.924372911453247,-0.16396434605121613,-11.685750961303711,-8.551053047180176,-3.015364646911621,-3.7447595596313477,2.0720486640930176,-4.352353572845459,-0.5541524887084961,0.18804824352264404,0.8096309304237366,-0.29873955249786377,0.46892479062080383,-71.66875457763672,-0.8812500238418579,-36.868751525878906,,,,Forward
1761153058.6135697,-4.0105438232421875,-1.4541363716125488,-5.682501792907715,-8.80722427368164,-3.200021982192993,-2.9032411575317383,1.1655247211456299,-4.378010272979736,-0.6445605754852295,0.17182134091854095,0.7864165306091309,-0.3169780969619751,0.5015490651130676,-69.75,-0.625,-42.10000228881836,,,,Forward
1761153058.6435707,-6.025989055633545,-3.5078794956207275,-4.3073554039001465,-8.995386123657227,-3.3865482807159424,-1.9622631072998047,0.6853846907615662,-4.586925983428955,-0.7288599610328674,0.1540909707546234,0.7591241002082825,-0.3361221253871918,0.5357319712638855,-70.0999984741211,-0.39375001192092896,-45.59375,,,,Forward
1761153058.6725638,-6.279715061187744,-2.8603999614715576,-3.2517600059509277,-9.104822158813477,-3.557525157928467,-0.8260278701782227,1.1288728713989258,-5.086613655090332,-0.5846957564353943,0.13808922469615936,0.7232099771499634,-0.3601076900959015,0.5729058384895325,-71.17500305175781,0.13125000894069672,-48.9375,,,,Forward
1761153058.6755638,-5.827316761016846,-8.523752212524414,3.304420232772827,-9.11734676361084,-3.594353199005127,0.4366950988769531,2.0292882919311523,-5.753678798675537,-0.5517090559005737,0.12867969274520874,0.6791052222251892,-0.38558024168014526,0.6112163662910461,-71.6187515258789,0.06875000149011612,-53.03125,,,,Forward
1761153058.7035615,-4.924914360046387,-8.243696212768555,11.679766654968262,-9.104262351989746,-3.4187963008880615,1.288543701171875,2.1221396923065186,-4.909462928771973,0.6492519974708557,0.13426929712295532,0.6452106237411499,-0.40230992436408997,0.6354696750640869,-71.40625,-0.0062500000931322575,-58.50625228881836,,,,Forward
1761153058.71856,-11.795858383178711,-0.7288634181022644,13.970480918884277,-9.024223327636719,-3.3578195571899414,1.8773808479309082,2.7134573459625244,-2.1678996086120605,0.42078840732574463,0.13924309611320496,0.6204226613044739,-0.4210245907306671,0.6468580961227417,-72.79375457763672,-0.2874999940395355,-63.10625076293945,,,,Forward
1761153058.7485502,-2.4893856048583984,7.709914684295654,22.29197120666504,-8.98564338684082,-3.4065656661987305,1.9722175598144531,0.9627174735069275,-2.138578176498413,-0.46985310316085815,0.13817903399467468,0.6167542338371277,-0.42647793889045715,0.6470219492912292,-72.5250015258789,-0.10000000149011612,-64.32500457763672,,,,Forward
1761153058.7635515,3.4755654335021973,3.292451858520508,26.54427146911621,-9.088361740112305,-3.5144946575164795,1.1340703964233398,0.2846570611000061,2.905946969985962,-0.5492656230926514,0.1593363881111145,0.6456083655357361,-0.4284375011920929,0.6117540597915649,-72.34375,-0.05625000223517418,-61.81875228881836,,,,Forward
1761153058.778555,-8.231728553771973,-0.8377740383148193,14.31396770477295,-9.12462043762207,-3.6018614768981934,0.06330490112304688,1.1887376308441162,5.861313343048096,-0.7447424530982971,0.1912676990032196,0.6783731579780579,-0.42975088953971863,0.5643941164016724,-73.32500457763672,0.012500000186264515,-57.82500076293945,,,,Forward
1761153058.8088436,-10.876700401306152,-2.210526704788208,0.13284702599048615,-9.058256149291992,-3.56882643699646,-1.203155517578125,1.016473650932312,6.4978346824646,-0.31835854053497314,0.2227717638015747,0.7153290510177612,-0.41503170132637024,0.5161644816398621,-73.2437515258789,-0.08125000447034836,-54.5625,,,,Forward
1761153058.8238423,-17.392189025878906,0.02992050163447857,-5.361753940582275,-8.919893264770508,-3.3611338138580322,-2.3182754516601562,-1.2412843704223633,6.082446098327637,0.4134580194950104,0.2371925264596939,0.7495988607406616,-0.38218411803245544,0.4855682849884033,-70.73750305175781,0.10625000298023224,-48.46875,,,,Forward
1761153058.8538392,-13.108770370483398,-2.898698091506958,-9.831876754760742,-8.643659591674805,-3.282528877258301,-3.2784547805786133,-2.262650966644287,4.15333366394043,0.32915863394737244,0.2356790155172348,0.7820185422897339,-0.3517701327800751,0.45734038949012756,-70.5062484741211,0.15000000596046448,-44.04999923706055,,,,Forward
1761153058.8688378,-15.102672576904297,-0.4200838506221771,-14.518624305725098,-8.424715042114258,-2.782588243484497,-4.185389518737793,-4.312714576721191,3.3201136589050293,-0.5236092805862427,0.2189016342163086,0.8157234191894531,-0.29395440220832825,0.4475134015083313,-69.38750457763672,-0.606249988079071,-39.0625,,,,Forward
1761153058.884287,-10.511670112609863,-9.626023292541504,-15.161316871643066,-8.291504859924316,-2.2015221118927,-4.758186340332031,-6.6938676834106445,2.282864570617676,0.6211522221565247,0.20314227044582367,0.8374069333076477,-0.24216638505458832,0.44591283798217773,-70.0,-1.212499976158142,-33.04999923706055,,,,Forward
1761153058.9132893,-7.305389404296875,-13.50850772857666,-4.740604400634766,-8.265485763549805,-2.054689407348633,-4.867863655090332,-2.412923812866211,1.0012692213058472,0.7017863988876343,0.21279555559158325,0.8383467197418213,-0.23718716204166412,0.4423064887523651,-69.9124984741211,-1.681249976158142,-31.943750381469727,,,,Forward
1761153058.9282885,3.2733027935028076,-7.153393268585205,-11.758756637573242,-8.337030410766602,-1.9793522357940674,-4.776211738586426,1.302358627319336,0.20714440941810608,0.7702033519744873,0.22382956743240356,0.832668125629425,-0.24092735350131989,0.4455537796020508,-69.23125457763672,-1.399999976158142,-32.5625,,,,Forward
1761153058.958288,2.546833038330078,-4.878238677978516,-18.08634376525879,-8.5205078125,-1.934497356414795,-4.460360527038574,0.360404372215271,-1.1575285196304321,1.002332091331482,0.22822274267673492,0.8217370510101318,-0.24766169488430023,0.4597025215625763,-68.17500305175781,-1.5625,-34.25,,,,Forward
1761153058.9732838,-4.3073554039001465,0.34348735213279724,-14.299606323242188,-8.809053421020508,-2.02421498298645,-3.8130416870117188,1.1814072132110596,-2.551522970199585,0.2656286358833313,0.22560833394527435,0.802150547504425,-0.2650744915008545,0.48517119884490967,-66.38750457763672,-1.7000000476837158,-37.462501525878906,,,,Forward
1761153058.988283,-4.041661262512207,-0.5194199085235596,-10.01020336151123,-9.095319747924805,-2.1002986431121826,-3.016630172729492,0.8674225211143494,-4.042034149169922,-0.05690820515155792,0.21510377526283264,0.7794120907783508,-0.280154287815094,0.5174561738967896,-65.0687484741211,-1.618749976158142,-40.38750076293945,,,,Forward
1761153059.0187747,-2.878352165222168,-2.8532190322875977,-5.170262813568115,-9.316961288452148,-2.1912403106689453,-2.1514663696289062,0.3713999390602112,-4.346245288848877,-0.23894605040550232,0.20285247266292572,0.7539944648742676,-0.2961302101612091,0.5501364469528198,-65.0,-1.1875,-44.46875,,,,Forward
1761153059.0337853,-4.132619857788086,-5.840481758117676,-2.0010831356048584,-9.479988098144531,-2.220451593399048,-1.1981372833251953,0.9822651743888855,-4.474526882171631,-0.08500801026821136,0.19824859499931335,0.722332775592804,-0.3164294958114624,0.5820698142051697,-65.4437484741211,-1.09375,-49.25,,,,Forward
1761153059.0637696,-5.2983222007751465,-7.764968395233154,3.0279548168182373,-9.588980674743652,-2.0566928386688232,-0.2399454116821289,1.9877493381500244,-4.426879405975342,0.6211522221565247,0.20564474165439606,0.6855216026306152,-0.33650240302085876,0.6119939088821411,-65.1812515258789,-0.981249988079071,-53.89374923706055,,,,Forward
1761153059.0917711,-7.106717586517334,-7.305389404296875,9.530278205871582,-9.654767990112305,-1.6791541576385498,0.4494504928588867,2.7415571212768555,-3.6584107875823975,1.5973148345947266,0.22655804455280304,0.6525056958198547,-0.35072970390319824,0.6323736310005188,-64.0374984741211,-1.2625000476837158,-56.875,,,,Forward
1761153059.0947704,-11.811417579650879,0.3542587459087372,9.448894500732422,-9.651164054870605,-1.5082449913024902,0.9035272598266602,2.516758680343628,-1.9528751373291016,1.499576449394226,0.23545464873313904,0.6312763094902039,-0.36204347014427185,0.64418625831604,-65.1812515258789,-1.8562500476837158,-60.06875228881836,,,,Forward
1761153059.1237614,-8.390905380249023,7.176133155822754,12.040009498596191,-9.627434730529785,-1.512103796005249,1.1234550476074219,0.3457435965538025,-1.7732807397842407,0.040830232203006744,0.22605206072330475,0.6258112788200378,-0.35947468876838684,0.6542466282844543,-66.2125015258789,-2.0,-62.60000228881836,,,,Forward
1761153059.1390166,4.933292388916016,6.0702714920043945,19.696067810058594,-9.692082405090332,-1.466198444366455,0.3871917724609375,-0.6878404021263123,1.1674245595932007,0.3413759469985962,0.24340708553791046,0.6488593816757202,-0.35132601857185364,0.6295272707939148,-65.3812484741211,-1.75,-59.48125076293945,,,,Forward
1761153059.168017,-9.288520812988281,4.021315574645996,14.517427444458008,-9.664778709411621,-1.539320945739746,-0.6772480010986328,1.3756624460220337,5.406829357147217,-0.03125186637043953,0.27174022793769836,0.6787307858467102,-0.350053071975708,0.5856147408485413,-65.6187515258789,-1.7000000476837158,-55.64374923706055,,,,Forward
1761153059.1830149,-14.868095397949219,4.9895429611206055,2.6533501148223877,-9.535456657409668,-1.5321059226989746,-1.721578598022461,1.5283787250518799,5.486241817474365,-0.47474002838134766,0.29330113530158997,0.7083223462104797,-0.33663949370384216,0.546742856502533,-65.42500305175781,-1.524999976158142,-51.98749923706055,,,,Forward
1761153059.1980147,-16.948169708251953,3.1763603687286377,-1.6276752948760986,-9.322399139404297,-1.4663045406341553,-2.679356575012207,-1.254723310470581,4.748316764831543,0.1239079087972641,0.2952268123626709,0.7412176728248596,-0.3073875606060028,0.5186043381690979,-64.30000305175781,-1.431249976158142,-48.17499923706055,,,,Forward
1761153059.2280161,-13.53842830657959,2.4474971294403076,-4.150571823120117,-9.01513957977295,-1.5167145729064941,-3.55850887298584,-2.469123363494873,4.3280415534973145,-0.6922080516815186,0.2929222583770752,0.7717305421829224,-0.2850901484489441,0.4871881604194641,-65.4749984741211,-1.3562500476837158,-44.70000076293945,,,,Forward
1761153059.2430103,-14.078194618225098,-2.9214377403259277,-9.311260223388672,-8.695972442626953,-1.491429328918457,-4.288567543029785,-1.5332778692245483,3.9322006702423096,-1.40814208984375,0.2813640236854553,0.7996347546577454,-0.2581349015235901,0.46344897150993347,-66.1937484741211,-1.3250000476837158,-38.681251525878906,,,,Forward
1761153059.2730067,-10.660076141357422,-1.159718632698059,-13.25717544555664,-8.412846565246582,-1.1358909606933594,-4.916284561157227,-3.98162579536438,2.875403881072998,-0.45030543208122253,0.2642148733139038,0.8250852227210999,-0.21458269655704498,0.4509756565093994,-66.34375,-1.774999976158142,-34.88125228881836,,,,Forward
1761153059.2880056,-11.63548469543457,-7.553131580352783,-11.071782112121582,-8.230910301208496,-0.9002232551574707,-5.260968208312988,-4.065925121307373,2.216891050338745,-0.1998506784439087,0.25049659609794617,0.839877724647522,-0.1869748830795288,0.4437309801578522,-66.90625,-2.2250001430511475,-31.17500114440918,,,,Forward
1761153059.3040154,-6.473599910736084,-6.994216442108154,-8.720030784606934,-8.155576705932617,-0.9588027000427246,-5.366875648498535,-0.8075699806213379,1.207741618156433,-0.1387641429901123,0.25050410628318787,0.8430829048156738,-0.18787501752376556,0.43722063302993774,-67.89375305175781,-2.25,-30.006250381469727,,,,Forward
1761153059.3329947,2.700026035308838,-2.734733819961548,-6.8003315925598145,-8.164292335510254,-1.1518373489379883,-5.315423011779785,0.6939367651939392,0.09718865901231766,-0.7215296030044556,0.24739886820316315,0.8424443006515503,-0.1976933479309082,0.43588849902153015,-67.96875,-2.2125000953674316,-30.92500114440918,,,,Forward
1761153059.3640025,2.2560057640075684,-6.874534606933594,-18.735021591186523,-8.369789123535156,-1.2269108295440674,-4.967639923095703,0.05130654573440552,-1.2063977718353271,0.07259522378444672,0.2438109964132309,0.8329158425331116,-0.20724283158779144,0.45150619745254517,-67.4000015258789,-1.90625,-31.943750381469727,,,,Forward
1761153059.3669946,-1.5295360088348389,-2.204542636871338,-16.331806182861328,-8.720223426818848,-1.4929389953613281,-4.23851203918457,1.3707754611968994,-3.3102176189422607,-0.5565959811210632,0.23785065114498138,0.8120697140693665,-0.23393800854682922,0.4787932336330414,-65.8062515258789,-1.8250000476837158,-36.44375228881836,,,,Forward
1761153059.4076192,-3.182344436645508,-1.549881935119629,-10.790529251098633,-9.082295417785645,-1.6773099899291992,-3.3067626953125,1.5625871419906616,-4.5514960289001465,-0.4478619694709778,0.22881467640399933,0.7849740386009216,-0.25881439447402954,0.5142711400985718,-64.45000457763672,-1.868749976158142,-40.61249923706055,,,,Forward
1761153059.4106188,-3.292451858520508,-2.8472349643707275,-7.891831398010254,-9.36893367767334,-1.7953510284423828,-2.288210868835449,0.9419480562210083,-5.056070327758789,-0.37455812096595764,0.21479929983615875,0.7553063631057739,-0.27842795848846436,0.5530383586883545,-63.493751525878906,-1.3562500476837158,-44.375,,,,Forward
1761153059.4386158,-4.538341522216797,-4.163736820220947,-4.800445079803467,-9.557708740234375,-1.889162302017212,-1.1477603912353516,0.7232583165168762,-5.418924331665039,-0.32446718215942383,0.20298084616661072,0.7192345261573792,-0.30104532837867737,0.5923446416854858,-63.35625076293945,-1.4812500476837158,-49.61249923706055,,,,Forward
1761153059.4536142,-6.502323150634766,-7.962443828582764,1.267432451248169,-9.637521743774414,-1.825643539428711,0.14594173431396484,1.6407779455184937,-5.774447917938232,0.10558194667100906,0.20156697928905487,0.6722591519355774,-0.3280104100704193,0.6323350071907043,-64.03125,-1.59375,-56.78125,,,,Forward
1761153059.4837527,-7.494487285614014,-6.639957904815674,11.150772094726562,-9.632723808288574,-1.4186010360717773,1.197627067565918,2.996898651123047,-5.632727146148682,1.186813473701477,0.2185053825378418,0.6254712343215942,-0.34741833806037903,0.6635825037956238,-63.70624923706055,-1.3312500715255737,-63.19375228881836,,,,Forward
1761153059.4982316,-8.096487998962402,1.287778377532959,11.47391414642334,-9.576952934265137,-1.1228392124176025,1.8048076629638672,3.1373977661132812,-3.294335126876831,1.7964569330215454,0.23269088566303253,0.5948670506477356,-0.3618163466453552,0.6790266036987305,-64.625,-1.818750023841858,-66.01875305175781,,,,Forward
1761153059.513229,-10.01140022277832,9.543442726135254,16.4119930267334,-9.489208221435547,-1.1304240226745605,2.2165679931640625,1.0335779190063477,-2.2827422618865967,0.33282381296157837,0.22475440800189972,0.5800952911376953,-0.3672246038913727,0.6914629936218262,-65.85625457763672,-2.28125,-68.2874984741211,,,,Forward
1761153059.5432324,6.408971309661865,12.26740550994873,26.00570297241211,-9.593880653381348,-1.161484956741333,1.6865673065185547,-0.3836295008659363,-0.2180178016424179,-0.21573317050933838,0.2375352680683136,0.5980095267295837,-0.3660353720188141,0.6722943186759949,-66.0999984741211,-2.206249952316284,-68.17500305175781,,,,Forward
1761153059.5592315,-5.0721235275268555,7.104323863983154,21.301002502441406,-9.69699478149414,-1.346994161605835,0.6245241165161133,1.292584776878357,5.114835739135742,-0.7716205716133118,0.26082709431648254,0.6325647830963135,-0.3681137263774872,0.6295421719551086,-65.32500457763672,-1.962499976158142,-62.90625,,,,Forward
1761153059.58823,-10.236401557922363,2.514518976211548,6.669878005981445,-9.677953720092773,-1.5028750896453857,-0.5609712600708008,1.3622233867645264,5.696379661560059,-1.1943392753601074,0.28398364782333374,0.6692870259284973,-0.36199456453323364,0.5834107995033264,-65.1624984741211,-1.625,-59.57500076293945,,,,Forward
1761153059.6176653,-14.984187126159668,0.3351096212863922,0.3446841835975647,-9.530777931213379,-1.544297456741333,-1.7365350723266602,-0.023219013586640358,6.1569719314575195,-0.37822332978248596,0.2978017330169678,0.7069813013076782,-0.34036803245544434,0.5437290668487549,-63.72500228881836,-1.493749976158142,-54.41250228881836,,,,Forward
1761153059.6196606,-12.810761451721191,0.9526687860488892,-3.0267579555511475,-9.255167007446289,-1.6388323307037354,-2.80930233001709,-1.2718275785446167,5.24800443649292,-0.5920261740684509,0.30472972989082336,0.7418392300605774,-0.3198334276676178,0.5045005679130554,-64.16875457763672,-1.631250023841858,-50.5625,,,,Forward
1761153059.6487575,-12.150116920471191,-0.5660958886146545,-6.788363456726074,-8.88249683380127,-1.8169538974761963,-3.7464723587036133,-0.9871643781661987,5.0317583084106445,-1.5645235776901245,0.29849934577941895,0.7757897973060608,-0.2995612621307373,0.4683070182800293,-65.10625457763672,-1.125,-46.11249923706055,,,,Forward
1761153059.6637564,-10.857551574707031,-0.15199615061283112,-11.207022666931152,-8.506837844848633,-1.653456211090088,-4.597382545471191,-2.954150438308716,3.8588967323303223,-1.4252463579177856,0.28061580657958984,0.809676468372345,-0.25861167907714844,0.4458686411380768,-66.4124984741211,-1.287500023841858,-39.48749923706055,,,,Forward
1761153059.6937532,-8.784659385681152,-6.484371185302734,-15.066767692565918,-8.174819946289062,-1.293872594833374,-5.266335487365723,-4.989553451538086,3.464277982711792,-0.8339288234710693,0.2616044580936432,0.8366479873657227,-0.21365171670913696,0.43120312690734863,-68.23125457763672,-1.7000000476837158,-34.868751525878906,,,,Forward
1761153059.7232196,-11.406891822814941,-11.28601360321045,-9.114981651306152,-7.97568416595459,-1.210611343383789,-5.582025527954102,-3.479494571685791,2.121596097946167,-0.2597154676914215,0.25521498918533325,0.8481581211090088,-0.19895392656326294,0.4194168448448181,-68.40625,-2.012500047683716,-31.306249618530273,,,,Forward
1761153059.7262194,-3.5366032123565674,-5.267205238342285,-6.8134965896606445,-7.929195404052734,-1.411982536315918,-5.600916862487793,0.42271262407302856,0.9853867292404175,-0.24749816954135895,0.25498780608177185,0.8487938642501831,-0.20896422863006592,0.4133572280406952,-69.28125,-2.075000047683716,-31.743749618530273,,,,Forward
1761153059.753218,6.569345474243164,-5.9745259284973145,-14.961447715759277,-8.059476852416992,-1.5125842094421387,-5.384519577026367,1.1398683786392212,-0.6578407883644104,-0.5101702213287354,0.2544112205505371,0.842445969581604,-0.2188086211681366,0.4215240478515625,-69.9312515258789,-2.075000047683716,-32.587501525878906,,,,Forward
1761153059.7682161,2.2536122798919678,-7.741032123565674,-18.3388729095459,-8.362430572509766,-1.598067045211792,-4.873604774475098,0.33719149231910706,-2.090930700302124,0.13612520694732666,0.2526257336139679,0.8273935317993164,-0.23392045497894287,0.44371312856674194,-68.78125,-1.28125,-34.78125,,,,Forward
1761153059.7982128,-3.229020595550537,-1.3200925588607788,-15.048815727233887,-8.762742042541504,-1.7077610492706299,-4.066205024719238,1.5381525754928589,-3.835561752319336,0.06159965321421623,0.24920867383480072,0.8032079339027405,-0.2562255561351776,0.4765506386756897,-66.8187484741211,-1.943750023841858,-39.36249923706055,,,,Forward
1761153059.813212,-5.404839515686035,-2.8627936840057373,-9.757674217224121,-9.130471229553223,-1.7018132209777832,-3.1582326889038086,0.9333959817886353,-4.743307590484619,0.14589905738830566,0.24034881591796875,0.7766611576080322,-0.27114179730415344,0.5152786374092102,-64.26875305175781,-1.506250023841858,-43.07500076293945,,,,Forward
1761153059.8282156,-7.045679569244385,-3.9913949966430664,-5.841678619384766,-9.425535202026367,-1.6688354015350342,-2.147188186645508,0.13071902096271515,-5.0084228515625,0.3804713189601898,0.22966915369033813,0.7461171746253967,-0.2851758301258087,0.5560900568962097,-63.431251525878906,-1.306249976158142,-46.96875,,,,Forward
1761153059.8717227,-6.9379658699035645,-4.872254371643066,-3.787935495376587,-9.626750946044922,-1.5955417156219482,-1.007969856262207,0.7379190921783447,-5.372498512268066,0.47454455494880676,0.2238013744354248,0.7080166339874268,-0.3035828471183777,0.5970450639724731,-63.07500076293945,-1.524999976158142,-54.21875,,,,Forward
1761153059.8747294,-8.177871704101562,-7.070812702178955,4.563474655151367,-9.714353561401367,-1.352708101272583,0.19398784637451172,1.6468865871429443,-5.680374622344971,0.8386202454566956,0.22832515835762024,0.6618008613586426,-0.3237573206424713,0.6364498734474182,-62.69375228881836,-1.412500023841858,-58.76874923706055,,,,Forward
1761153059.9037101,-7.632121562957764,-3.972245693206787,12.08309555053711,-9.70856761932373,-0.9211564064025879,1.0636281967163086,2.49721097946167,-4.893580436706543,1.9259604215621948,0.24721355736255646,0.620220959186554,-0.3397305905818939,0.6624158024787903,-63.306251525878906,-2.0375001430511475,-63.83124923706055,,,,Forward
1761153059.9187138,-11.150772094726562,1.5295360088348389,11.272848129272461,-9.648798942565918,-0.6235547065734863,1.657698631286621,2.840517282485962,-2.875281572341919,1.4543724060058594,0.25922808051109314,0.5901784300804138,-0.3519555926322937,0.678688108921051,-63.90625,-2.1312501430511475,-66.625,,,,Forward
1761153059.9337075,-7.557918548583984,7.050467014312744,17.803895950317383,-9.587746620178223,-0.47509765625,2.0212655067443848,0.9700478911399841,-2.6529266834259033,0.9204761981964111,0.262146532535553,0.5729385018348694,-0.357644259929657,0.6892831921577454,-64.4625015258789,-2.356250047683716,-69.60625457763672,,,,Forward
1761153059.9637692,4.541932106018066,13.8675537109375,25.98056983947754,-9.68902587890625,-0.5015368461608887,1.4516735076904297,1.2767022848129272,0.6286414265632629,0.09580810368061066,0.28199881315231323,0.5886316299438477,-0.3622153401374817,0.6654243469238281,-64.05000305175781,-2.8062500953674316,-68.5250015258789,,,,Forward
1761153059.992771,-6.4005937576293945,8.819367408752441,17.943923950195312,-9.773138046264648,-0.6840076446533203,0.5039987564086914,1.4318619966506958,4.546730995178223,-1.0550620555877686,0.30089735984802246,0.6194939613342285,-0.36153551936149597,0.6284744143486023,-63.118751525878906,-2.28125,-64.6812515258789,,,,Forward
1761153059.9957776,-8.862452507019043,2.5085349082946777,6.185165882110596,-9.762572288513184,-0.7614326477050781,-0.5903472900390625,0.7647971510887146,5.04275369644165,-0.7789509296417236,0.32144349813461304,0.6532710790634155,-0.3495592474937439,0.5896773338317871,-63.33124923706055,-2.40625,-61.23749923706055,,,,Forward
1761153060.0239122,-11.86288070678711,0.6271337270736694,-0.48949939012527466,-9.621018409729004,-0.8754918575286865,-1.7046003341674805,0.13194075226783752,5.773348331451416,-0.3501235246658325,0.33633995056152344,0.6882994771003723,-0.33336228132247925,0.5495352745056152,-61.9375,-2.5062501430511475,-56.95000076293945,,,,Forward
1761153060.0389106,-16.10919761657715,1.091499924659729,-3.0746307373046875,-9.414827346801758,-1.0490288734436035,-2.548860549926758,-0.18815262615680695,4.530848503112793,-1.1369179487228394,0.34354737401008606,0.7154624462127686,-0.3224391043186188,0.5158699154853821,-61.95624923706055,-1.7625000476837158,-53.21875,,,,Forward
1761153060.0689027,-10.84079647064209,1.4625141620635986,-5.565213203430176,-9.130395889282227,-1.2612719535827637,-3.3587446212768555,-0.047653622925281525,4.137451171875,-0.8999022245407104,0.34294986724853516,0.7440263628959656,-0.30904141068458557,0.4830150306224823,-62.56875228881836,-1.6062500476837158,-48.57500076293945,,,,Forward
1761153060.0980492,-12.37511920928955,2.7239625453948975,-8.600348472595215,-8.83362865447998,-1.2650425434112549,-4.074655532836914,-1.7434155941009521,3.470386505126953,-1.683031439781189,0.3251160979270935,0.775872528553009,-0.2775341868400574,0.46400025486946106,-62.462501525878906,-1.600000023841858,-45.03750228881836,,,,Forward
1761153060.1020482,-8.734393119812012,-0.6989428997039795,-11.94546127319336,-8.535090446472168,-0.9940874576568604,-4.732877731323242,-4.948014736175537,3.0464460849761963,-1.2969646453857422,0.29786646366119385,0.8077764511108398,-0.2300313115119934,0.4537162184715271,-63.67499923706055,-1.7937500476837158,-39.375,,,,Forward
1761153060.128046,-9.038385391235352,-11.683357238769531,-6.996610164642334,-8.320171356201172,-1.0019099712371826,-5.099710464477539,-4.57172155380249,2.4001505374908447,-0.9023457169532776,0.281354695558548,0.8250840306282043,-0.21245074272155762,0.4415208399295807,-65.1187515258789,-2.3687500953674316,-36.29999923706055,,,,Forward
1761153060.1440396,0.7743425965309143,-5.559229373931885,-5.605905055999756,-8.217141151428223,-1.3602039813995361,-5.183102607727051,0.7757927179336548,1.4313184022903442,-1.4826676845550537,0.28382375836372375,0.8268122673034668,-0.23056288063526154,0.4273948073387146,-66.8125,-1.806249976158142,-35.35625076293945,,,,Forward
1761153060.1730416,3.959080696105957,-5.680108070373535,-20.012027740478516,-8.319940567016602,-1.5993425846099854,-4.945385932922363,1.6212302446365356,-0.5173417925834656,-0.2804848849773407,0.2809428572654724,0.8204447031021118,-0.24734020233154297,0.43216270208358765,-67.3187484741211,-1.8125,-36.69375228881836,,,,Forward
1761153060.1885195,-0.39854109287261963,-4.667598247528076,-18.123445510864258,-8.593134880065918,-1.887622594833374,-4.339474678039551,1.4550749063491821,-2.258307695388794,-0.6909863352775574,0.27346745133399963,0.8039848208427429,-0.27333611249923706,0.4517868459224701,-66.3375015258789,-1.337499976158142,-40.13125228881836,,,,Forward
1761153060.2189062,-2.877155303955078,-1.376343011856079,-12.424188613891602,-8.920809745788574,-2.1200077533721924,-3.487240791320801,1.5613654851913452,-3.939408779144287,-0.6531127095222473,0.26206985116004944,0.7804219722747803,-0.3002409040927887,0.48178455233573914,-65.46875,-1.287500023841858,-44.837501525878906,,,,Forward
1761153060.233898,-3.0399229526519775,-1.001738429069519,-7.203660011291504,-9.181055068969727,-2.2427892684936523,-2.629500389099121,1.0213605165481567,-4.53805685043335,-0.5529307723045349,0.24627751111984253,0.7572112083435059,-0.3182886838912964,0.514461874961853,-64.5999984741211,-1.006250023841858,-48.775001525878906,,,,Forward
1761153060.2488956,-6.774001598358154,-3.2170522212982178,-3.5354063510894775,-9.374659538269043,-2.346789598464966,-1.6865520477294922,0.13071902096271515,-4.6296868324279785,-0.38799718022346497,0.22828824818134308,0.7306472063064575,-0.3353005051612854,0.5491928458213806,-64.42500305175781,-0.90625,-51.88125228881836,,,,Forward
1761153060.2788963,-7.471747398376465,-5.379706382751465,-1.8048046827316284,-9.497557640075684,-2.3789291381835938,-0.6108989715576172,0.7574667930603027,-4.970549583435059,-0.1289903074502945,0.21655739843845367,0.6958731412887573,-0.3562264144420624,0.5847787857055664,-66.09375,-0.7875000238418579,-57.67499923706055,,,,Forward
1761153060.2938917,-7.712308406829834,-8.056992530822754,2.016641855239868,-9.534143447875977,-2.244266986846924,0.5472564697265625,1.5882434844970703,-5.299194812774658,0.28761979937553406,0.21275261044502258,0.6533326506614685,-0.3772820234298706,0.6209275722503662,-66.29375457763672,-0.84375,-61.98125076293945,,,,Forward
1761153060.351556,-6.554983615875244,-9.198759078979492,8.810989379882812,-9.515508651733398,-1.8286068439483643,1.5321245193481445,2.14046573638916,-4.969327449798584,1.4458203315734863,0.2235608845949173,0.6098611354827881,-0.39170578122138977,0.6516567468643188,-66.48125457763672,-0.706250011920929,-67.25,,,,Forward
1761153060.3545537,-9.738524436950684,-3.8058876991271973,11.405694961547852,-9.425140380859375,-1.419999361038208,2.320870876312256,2.681692361831665,-3.6559674739837646,1.9479515552520752,0.23576843738555908,0.5710710883140564,-0.40499648451805115,0.673994779586792,-66.4375,-1.21875,-71.36250305175781,,,,Forward
1761153060.357646,-10.166986465454102,5.556835651397705,14.949479103088379,-9.284282684326172,-1.3311924934387207,2.875089168548584,1.6749863624572754,-3.2112574577331543,1.0059973001480103,0.22860130667686462,0.5488194227218628,-0.4113943874835968,0.6908642053604126,-67.59375,-2.049999952316284,-74.88750457763672,,,,Forward
1761153060.3835506,3.6036252975463867,10.45182991027832,23.95435333251953,-9.341667175292969,-1.4018442630767822,2.646544933319092,-0.6939490437507629,-1.3261274099349976,-0.21695490181446075,0.22780850529670715,0.5596544742584229,-0.40659981966018677,0.6852494478225708,-67.53125,-2.1875,-74.40625,,,,Forward
1761153060.3985484,-2.3242244720458984,3.457613229751587,24.84718132019043,-9.503016471862793,-1.4867925643920898,1.928271770477295,-0.14905725419521332,3.3066747188568115,-0.38921889662742615,0.24376323819160461,0.5850628614425659,-0.40427082777023315,0.6594285368919373,-67.0562515258789,-1.84375,-71.3687515258789,,,,Forward
1761153060.4287317,-7.058844566345215,-0.8174281120300293,12.32485294342041,-9.62841796875,-1.573657751083374,1.0262928009033203,1.0286909341812134,4.1191253662109375,-0.6909863352775574,0.26726630330085754,0.6134005188941956,-0.40286338329315186,0.624507486820221,-66.58125305175781,-1.693750023841858,-69.32500457763672,,,,Forward
1761153060.4587955,-9.819908142089844,-0.2381671965122223,4.0655975341796875,-9.677059173583984,-1.607560157775879,-0.07977962493896484,1.0421299934387207,5.458142280578613,-0.4026579260826111,0.2940668761730194,0.6462127566337585,-0.3927820920944214,0.5845134258270264,-64.89375305175781,-1.431249976158142,-65.3375015258789,,,,Forward
1761153060.4617448,-13.26675033569336,0.8042630553245544,-0.37699830532073975,-9.594742774963379,-1.7157707214355469,-1.1104888916015625,0.26266592741012573,5.493572235107422,-0.46374446153640747,0.30939844250679016,0.6788758635520935,-0.37849894165992737,0.5478492975234985,-64.1312484741211,-1.212499976158142,-61.63125228881836,,,,Forward
1761153060.4885921,-12.2494535446167,1.2626451253890991,-4.022512435913086,-9.410417556762695,-1.8917722702026367,-2.0251760482788086,-0.6719579100608826,4.529626846313477,-0.8021637797355652,0.3120647072792053,0.7112212181091309,-0.36181357502937317,0.5156266689300537,-63.806251525878906,-1.21875,-55.64374923706055,,,,Forward
1761153060.5035906,-12.722197532653809,-0.5373722314834595,-7.276666164398193,-9.181093215942383,-1.9791133403778076,-2.8331527709960938,-1.6224641799926758,3.8821096420288086,-1.380042314529419,0.30235791206359863,0.7436268925666809,-0.3359682559967041,0.4926704168319702,-63.59375,-0.862500011920929,-51.81875228881836,,,,Forward
1761153060.5335865,-11.82577896118164,-1.0268715620040894,-10.103554725646973,-8.951689720153809,-1.7739946842193604,-3.599484443664551,-3.922982692718506,3.182058095932007,-0.8620285987854004,0.28465861082077026,0.7761632800102234,-0.2927095890045166,0.48048004508018494,-64.15625,-1.024999976158142,-48.09375,,,,Forward
1761153060.548585,-11.704899787902832,-5.858434200286865,-12.46009349822998,-8.778480529785156,-1.4759886264801025,-4.1226043701171875,-4.671903610229492,2.5663058757781982,-0.2450547069311142,0.2714526951313019,0.7977693676948547,-0.2555473744869232,0.47389140725135803,-64.7249984741211,-1.4250000715255737,-43.243751525878906,,,,Forward
1761153060.5630476,-11.76952838897705,-6.720144748687744,-4.583820819854736,-8.672201156616211,-1.4394543170928955,-4.353963851928711,-2.40681529045105,1.2883758544921875,0.3022805452346802,0.27025774121284485,0.8055279850959778,-0.24733544886112213,0.46573662757873535,-63.9375,-1.6375000476837158,-40.83124923706055,,,,Forward
1761153060.593083,-2.588721752166748,-2.5444395542144775,-5.240875244140625,-8.621604919433594,-1.558924913406372,-4.412912368774414,0.844209611415863,0.9365175366401672,-0.07156897336244583,0.273599237203598,0.8062645792961121,-0.25422152876853943,0.4587509036064148,-64.7249984741211,-1.2687500715255737,-40.70000076293945,,,,Forward
1761153060.6080854,2.6342010498046875,-4.8794355392456055,-12.536689758300781,-8.681499481201172,-1.573575496673584,-4.288537979125977,0.6206329464912415,-0.20580050349235535,-0.34768006205558777,0.27304619550704956,0.8025121092796326,-0.2577050030231476,0.4636898934841156,-65.26875305175781,-1.3562500476837158,-40.54999923706055,,,,Forward
1761153060.639028,-1.6085261106491089,-4.170917987823486,-14.33431339263916,-8.888394355773926,-1.5290074348449707,-3.859370231628418,-0.22724801301956177,-1.640112042427063,0.4586620628833771,0.2686918079853058,0.790259838104248,-0.26311028003692627,0.48380497097969055,-64.5250015258789,-1.443750023841858,-42.83124923706055,,,,Forward
1761153060.6533573,-2.9908533096313477,-0.9526687860488892,-11.71926212310791,-9.15560245513916,-1.5361342430114746,-3.1703872680664062,0.3494087755680084,-3.1611666679382324,0.2399723082780838,0.2630188465118408,0.7696821689605713,-0.2766042947769165,0.5117622017860413,-63.118751525878906,-1.6125000715255737,-46.03750228881836,,,,Forward
1761153060.6683624,-4.273844242095947,-3.0901894569396973,-7.057647705078125,-9.399825096130371,-1.4928615093231201,-2.377140998840332,0.6621717810630798,-3.9846129417419434,0.220424622297287,0.2567558288574219,0.7451412677764893,-0.28930923342704773,0.5432690382003784,-61.806251525878906,-1.524999976158142,-48.92499923706055,,,,Forward
1761153060.7107751,-6.371870040893555,-4.242727279663086,-3.717323064804077,-9.585569381713867,-1.3877999782562256,-1.5578813552856445,0.45936453342437744,-4.103120803833008,0.6358129978179932,0.25377321243286133,0.7176362872123718,-0.301595002412796,0.5741409063339233,-61.54375076293945,-1.568750023841858,-53.65625,,,,Forward
1761153060.713775,-8.779871940612793,-4.358818531036377,-3.221839666366577,-9.71187973022461,-1.2329442501068115,-0.6287670135498047,0.8368792533874512,-4.155655384063721,1.0768576860427856,0.2521037757396698,0.6844639778137207,-0.3153923451900482,0.6070258617401123,-62.16250228881836,-1.7687500715255737,-57.38750076293945,,,,Forward
1761153060.7427719,-9.912063598632812,-5.203773498535156,2.7215688228607178,-9.750028610229492,-1.011190414428711,0.38800716400146484,1.3732188940048218,-4.707877159118652,0.8997067809104919,0.25571444630622864,0.6440761089324951,-0.33374112844467163,0.6390563249588013,-62.868751525878906,-1.899999976158142,-61.743751525878906,,,,Forward
1761153060.7717695,-11.49665355682373,-3.9136016368865967,8.602742195129395,-9.694025039672852,-0.7543835639953613,1.3011140823364258,2.2223215103149414,-4.448870658874512,1.440933346748352,0.2624818980693817,0.6039764285087585,-0.35258859395980835,0.6648285984992981,-63.9375,-2.4000000953674316,-65.80000305175781,,,,Forward
1761153060.774773,-12.647994041442871,4.503633975982666,10.363265037536621,-9.571816444396973,-0.7185165882110596,2.0248894691467285,1.6749863624572754,-3.7231626510620117,0.672464907169342,0.25456276535987854,0.5761878490447998,-0.3661641478538513,0.6849300861358643,-65.08125305175781,-2.28125,-69.73125457763672,,,,Forward
1761153060.8035705,-1.411050796508789,11.44159984588623,22.25965690612793,-9.531421661376953,-0.8118910789489746,2.1746134757995605,-0.38973817229270935,-2.962024450302124,-0.6616647839546204,0.2491726130247116,0.5719059705734253,-0.37185993790626526,0.6874276399612427,-67.0562515258789,-2.6000001430511475,-71.9375,,,,Forward
1761153060.8185692,2.2141170501708984,10.706751823425293,28.742830276489258,-9.65207576751709,-1.0263683795928955,1.4213075637817383,0.6108590960502625,2.6530487537384033,-0.6555561423301697,0.2638603448867798,0.5982775092124939,-0.37679922580718994,0.6560976505279541,-66.10625457763672,-2.3125,-69.95000457763672,,,,Forward
1761153060.8495665,-8.779871940612793,4.738210678100586,15.592171669006348,-9.700455665588379,-1.3666341304779053,0.5192327499389648,1.122764229774475,4.36102819442749,-1.829639196395874,0.2770416736602783,0.629907488822937,-0.38191500306129456,0.6169323325157166,-65.95625305175781,-1.8000000715255737,-66.4937515258789,,,,Forward
1761153060.877564,-11.037074089050293,0.8904341459274292,4.388739109039307,-9.664327621459961,-1.593761920928955,-0.5447998046875,0.7550233006477356,5.094066143035889,-1.46800696849823,0.29342880845069885,0.6645804047584534,-0.3761516511440277,0.5751020908355713,-65.05000305175781,-1.868749976158142,-62.5,,,,Forward
1761153060.8925679,-13.78976058959961,-1.043627142906189,-0.6678255796432495,-9.510576248168945,-1.7829265594482422,-1.6143836975097656,-0.15150071680545807,5.458142280578613,-1.161352515220642,0.30167925357818604,0.7009081244468689,-0.3605280816555023,0.5364112257957458,-64.64375305175781,-1.6125000715255737,-58.868751525878906,,,,Forward
1761153060.9085832,-12.231500625610352,-0.5313881039619446,-3.1619985103607178,-9.249039649963379,-2.1174185276031494,-2.491567611694336,-0.92363440990448,4.759312152862549,-1.066057562828064,0.3022412061691284,0.7318753004074097,-0.35321736335754395,0.49824321269989014,-64.96875,-1.21875,-53.45624923706055,,,,Forward
1761153060.9235935,-11.095718383789062,-2.2966976165771484,-7.237170696258545,-8.93824291229248,-2.4361073970794678,-3.2263498306274414,-0.25412607192993164,3.844236135482788,-2.3048923015594482,0.29359281063079834,0.7604243159294128,-0.3433997333049774,0.4665135145187378,-65.95625305175781,-0.41875001788139343,-50.431251525878906,,,,Forward
1761153060.9535744,-8.946229934692383,-0.1986721307039261,-10.522441864013672,-8.627864837646484,-2.4699151515960693,-3.9617652893066406,-2.3555026054382324,3.107532501220703,-1.839413046836853,0.273444801568985,0.7919297814369202,-0.3133399486541748,0.44709429144859314,-65.9749984741211,-0.7562500238418579,-46.806251525878906,,,,Forward
1761153060.9685717,-8.854074478149414,-3.974639415740967,-12.969939231872559,-8.364042282104492,-2.3167834281921387,-4.572902679443359,-4.499639511108398,2.557753801345825,-1.4423506259918213,0.24927492439746857,0.8191065192222595,-0.27690088748931885,0.43617939949035645,-66.78125,-0.84375,-42.66250228881836,,,,Forward
1761153060.9835792,-9.283733367919922,-10.041319847106934,-7.944491386413574,-8.199893951416016,-2.356477737426758,-4.841991424560547,-3.4330687522888184,1.521726369857788,-0.9170064926147461,0.2366991490125656,0.8311209678649902,-0.2661362290382385,0.4270632565021515,-67.84375,-0.84375,-39.13125228881836,,,,Forward
1761153061.012835,-1.5929675102233887,-5.256433486938477,-4.721455097198486,-8.109375,-2.7057394981384277,-4.811770439147949,0.8185532689094543,0.7728056311607361,-1.10515296459198,0.23309820890426636,0.831212043762207,-0.2830932140350342,0.417863667011261,-69.73125457763672,-0.53125,-39.25,,,,Forward
1761153061.0278401,4.361212253570557,-4.245120525360107,-12.35836410522461,-8.144783020019531,-2.919656276702881,-4.623228073120117,1.1508640050888062,-0.6040846705436707,-1.0709445476531982,0.2256724089384079,0.8274723291397095,-0.29473569989204407,0.42129847407341003,-70.70000457763672,-0.375,-40.10000228881836,,,,Forward
1761153061.0588362,-0.39255696535110474,-6.596872329711914,-13.83643627166748,-8.317007064819336,-3.084500789642334,-4.1891937255859375,0.45814278721809387,-1.3420099020004272,-0.4527488946914673,0.21766918897628784,0.8161719441413879,-0.3091491460800171,0.4369328022003174,-70.55000305175781,-0.21250000596046448,-42.306251525878906,,,,Forward
1761153061.0858338,-3.1452431678771973,-2.8328731060028076,-12.79280948638916,-8.563567161560059,-3.2444186210632324,-3.5178375244140625,1.1875158548355103,-3.104966878890991,-0.5040615797042847,0.20619472861289978,0.7979863882064819,-0.3267419934272766,0.4625377357006073,-69.67500305175781,0.01875000074505806,-45.50625228881836,,,,Forward
1761153061.1028302,-1.6683671474456787,-1.8538743257522583,-8.729605674743652,-8.782548904418945,-3.370945930480957,-2.7820301055908203,0.5925331711769104,-3.9430739879608154,-0.43564465641975403,0.18986040353775024,0.778298556804657,-0.34077590703964233,0.49201250076293945,-68.8125,0.03125,-48.20624923706055,,,,Forward
1761153061.1188285,-4.5766401290893555,-3.905223846435547,-4.5275702476501465,-8.950636863708496,-3.4697036743164062,-2.0207347869873047,0.2247922718524933,-4.120224952697754,-0.5309396386146545,0.17067518830299377,0.757537841796875,-0.35129544138908386,0.5230658650398254,-69.10625457763672,-0.14374999701976776,-52.28750228881836,,,,Forward
1761153061.1338282,-5.988887786865234,-4.813610076904297,-2.264383554458618,-9.052559852600098,-3.5796637535095215,-1.2137880325317383,-0.14783552289009094,-4.191085338592529,-0.3672277629375458,0.15073780715465546,0.73426353931427,-0.3622148334980011,0.5540177226066589,-69.5062484741211,-0.1875,-54.76874923706055,,,,Forward
1761153061.1634967,-7.403528690338135,-7.297011852264404,-0.4392329752445221,-9.095541954040527,-3.6639606952667236,-0.2874746322631836,0.3518522381782532,-4.406109809875488,-0.44908368587493896,0.13383477926254272,0.7047981023788452,-0.376297265291214,0.5863005518913269,-71.23125457763672,0.26250001788139343,-57.993751525878906,,,,Forward
1761153061.1924148,-8.110849380493164,-10.132278442382812,6.888896465301514,-9.101744651794434,-3.6004831790924072,0.6564130783081055,1.1239858865737915,-4.604030132293701,-0.05202128365635872,0.1289893537759781,0.6707499027252197,-0.39209240674972534,0.6162141561508179,-72.20625305175781,0.11874999850988388,-60.16875076293945,,,,Forward
1761153061.1954148,-9.76246166229248,-9.609268188476562,10.192119598388672,-9.097614288330078,-3.377206802368164,1.4366588592529297,2.106257200241089,-3.5545637607574463,0.795859694480896,0.13891461491584778,0.6383404731750488,-0.40839123725891113,0.6375270485877991,-72.30000305175781,0.14374999701976776,-65.7249984741211,,,,Forward
1761153061.2234118,-14.480325698852539,-4.377967834472656,10.144247055053711,-9.012404441833496,-3.17936372756958,2.2145700454711914,2.9590251445770264,-2.8984944820404053,0.7262210249900818,0.14486265182495117,0.6050964593887329,-0.42517438530921936,0.6573429703712463,-73.5625,-0.375,-69.30000305175781,,,,Forward
1761153061.2384114,-2.273958206176758,4.845924377441406,18.921724319458008,-8.954720497131348,-3.201662540435791,2.40799617767334,1.0323561429977417,-3.0108938217163086,0.26685038208961487,0.13933345675468445,0.5982093811035156,-0.42731088399887085,0.6634283661842346,-72.07500457763672,0.0062500000931322575,-71.7562484741211,,,,Forward
1761153061.2688138,1.6372498273849487,5.532898902893066,24.8052921295166,-9.066849708557129,-3.294783353805542,1.781224250793457,-0.5119112133979797,1.7624073028564453,-0.5602611899375916,0.14844796061515808,0.6222355365753174,-0.4229893386363983,0.6417680382728577,-72.23125457763672,-0.550000011920929,-69.26250457763672,,,,Forward
1761153061.283819,-10.555953025817871,-4.060810565948486,17.997779846191406,-9.184504508972168,-3.312023639678955,0.9547300338745117,-0.04643189162015915,3.9456396102905273,-0.19618548452854156,0.16794361174106598,0.6504874229431152,-0.4174811542034149,0.6118583679199219,-72.30000305175781,-0.25,-66.1312484741211,,,,Forward
1761153061.298818,-11.436812400817871,-3.2314140796661377,7.042088985443115,-9.251351356506348,-3.2611021995544434,-0.1175527572631836,0.29687437415122986,5.1771440505981445,0.09947329759597778,0.195709690451622,0.6838780641555786,-0.4070262908935547,0.5730079412460327,-71.1312484741211,-0.04374999925494194,-62.243751525878906,,,,Forward
1761153061.3288152,-14.304393768310547,-1.0998775959014893,0.2441512942314148,-9.167835235595703,-3.303105115890503,-1.129775047302246,-0.006114787422120571,5.8637566566467285,-0.03369532525539398,0.2120804339647293,0.7159641981124878,-0.3939041793346405,0.535963237285614,-70.01250457763672,-0.25,-58.64374923706055,,,,Forward
1761153061.3438137,-15.44137191772461,0.7707521319389343,-4.820791244506836,-9.009416580200195,-3.359539270401001,-1.9442262649536133,-1.2913752794265747,3.877222776412964,-0.7691770792007446,0.20899327099323273,0.7452623248100281,-0.3731972575187683,0.5114974975585938,-69.34375,0.01875000074505806,-55.087501525878906,,,,Forward
1761153061.373271,-12.88137435913086,-1.7006813287734985,-9.174822807312012,-8.821459770202637,-3.283564567565918,-2.76336669921875,-3.0201239585876465,2.9743640422821045,-0.8375939726829529,0.1905982941389084,0.7775067090988159,-0.3367712199687958,0.49572256207466125,-68.7874984741211,0.3812499940395355,-51.59375,,,,Forward
1761153061.3882923,-10.139459609985352,-6.429317474365234,-13.702392578125,-8.672146797180176,-2.9373550415039062,-3.521639823913574,-5.630961894989014,2.345172643661499,-0.4222056269645691,0.16501042246818542,0.8076285719871521,-0.285282701253891,0.48900049924850464,-69.10625457763672,0.03750000149011612,-46.431251525878906,,,,Forward
1761153061.403292,-11.33747673034668,-13.388826370239258,-9.448894500732422,-8.64716911315918,-2.711717128753662,-3.7562198638916016,-5.287655830383301,1.0770164728164673,0.17766404151916504,0.14736655354499817,0.8183712959289551,-0.25751423835754395,0.4921768009662628,-68.8187484741211,-0.606249988079071,-42.13750076293945,,,,Forward
1761153061.43329,-0.5708831548690796,-7.632121562957764,-0.38896653056144714,-8.661861419677734,-2.8893685340881348,-3.5860595703125,0.04153270274400711,-0.15448781847953796,-0.2352808564901352,0.1504075527191162,0.812498152256012,-0.2724992334842682,0.49291834235191345,-69.2125015258789,-0.737500011920929,-42.73125076293945,,,,Forward
1761153061.4632857,5.467073917388916,-3.504289150238037,-12.96036434173584,-8.767521858215332,-2.972872734069824,-3.2447948455810547,1.3817710876464844,-1.299249291419983,-0.40876659750938416,0.1460677981376648,0.8025248646736145,-0.2808513641357422,0.5057079195976257,-69.5062484741211,-0.5562500357627869,-43.51250076293945,,,,Forward
1761153061.467286,2.1518824100494385,-3.8597447872161865,-11.93708324432373,-8.860307693481445,-3.2215523719787598,-2.71158504486084,0.731810450553894,-1.9382143020629883,-0.39288410544395447,0.1406443864107132,0.7863995432853699,-0.30184516310691833,0.5202735066413879,-68.9749984741211,-0.20000000298023224,-45.69375228881836,,,,Forward
1761153061.5067217,-7.370018005371094,-0.7970821857452393,-7.997151851654053,-8.97642707824707,-3.495649814605713,-1.8548040390014648,1.985305905342102,-3.5997676849365234,-1.0037493705749512,0.12859591841697693,0.7602627873420715,-0.3267902433872223,0.5465087294578552,-68.48750305175781,-0.01875000074505806,-50.26250076293945,,,,Forward
1761153061.5102174,-4.760950088500977,-2.0740890502929688,-5.530505657196045,-9.010248184204102,-3.7521796226501465,-0.9862480163574219,1.3927665948867798,-4.269276142120361,-1.2480953931808472,0.11018545180559158,0.7335711717605591,-0.34690651297569275,0.573923647403717,-69.5625,0.05625000223517418,-54.95000076293945,,,,Forward
1761153061.538209,-5.5807719230651855,-4.742997646331787,-2.6629245281219482,-8.959714889526367,-3.9948341846466064,-0.03025531768798828,0.7941187024116516,-4.440318584442139,-1.1515787839889526,0.09016567468643188,0.7024330496788025,-0.3672630488872528,0.6029724478721619,-71.4312515258789,0.19375000894069672,-58.03750228881836,,,,Forward
1761153061.5532086,-6.2904863357543945,-7.305389404296875,0.6642351150512695,-8.859403610229492,-4.076937198638916,1.0609760284423828,1.4428576231002808,-4.8422675132751465,-0.820489764213562,0.07837527245283127,0.6631599068641663,-0.38838839530944824,0.6350045204162598,-74.2750015258789,0.30000001192092896,-61.33124923706055,,,,Forward
1761153061.5832055,-7.265894412994385,-11.36380672454834,7.216825008392334,-8.725380897521973,-3.926600456237793,2.164640426635742,2.25408673286438,-5.04263162612915,-0.008038986474275589,0.07955340296030045,0.619147002696991,-0.4087808430194855,0.665752649307251,-75.29375457763672,0.35625001788139343,-65.1500015258789,,,,Forward
1761153061.5977235,-7.6943559646606445,-4.344456672668457,9.043171882629395,-8.530133247375488,-3.7226829528808594,3.100735664367676,3.1740496158599854,-4.073799133300781,0.5185268521308899,0.08657591789960861,0.5783295631408691,-0.43096253275871277,0.687248706817627,-75.3499984741211,0.125,-70.61250305175781,,,,Forward
1761153061.6142247,-11.929902076721191,2.300288200378418,11.08375072479248,-8.192718505859375,-3.7080960273742676,3.9198861122131348,2.9846813678741455,-3.4849250316619873,-0.4625227153301239,0.07978487014770508,0.5420738458633423,-0.4522351622581482,0.7037568688392639,-79.03125,0.012500000186264515,-76.98750305175781,,,,Forward
1761153061.6433814,-1.8550710678100586,6.034366607666016,17.9534969329834,-7.919806003570557,-3.8818345069885254,4.2946648597717285,0.4715818464756012,-3.7060582637786865,-0.8840197324752808,0.06112683564424515,0.5266605615615845,-0.45845291018486023,0.7132412791252136,-79.7562484741211,0.05000000074505806,-78.20000457763672,,,,Forward
1761153061.6583862,5.761491775512695,-2.7227656841278076,24.545581817626953,-8.03099250793457,-4.029657363891602,3.9371485710144043,-0.4031772017478943,0.5858808755874634,-0.8962370753288269,0.06926402449607849,0.5427083373069763,-0.46709635853767395,0.69461590051651,-79.95000457763672,0.28125,-76.3687515258789,,,,Forward
1761153061.6883771,-4.495255947113037,-3.305617094039917,19.55245018005371,-8.233195304870605,-4.090501308441162,3.4232163429260254,1.4587401151657104,3.596224784851074,-1.0746097564697266,0.09527884423732758,0.5625354051589966,-0.48310717940330505,0.664141058921814,-79.51875305175781,0.29375001788139343,-75.79375457763672,,,,Forward
1761153061.7162418,-7.5567216873168945,-1.9699658155441284,10.17297077178955,-8.484430313110352,-4.146036148071289,2.6572418212890625,1.7055295705795288,4.50030517578125,-1.2248826026916504,0.12406560033559799,0.5909081101417542,-0.4896785020828247,0.6290073990821838,-78.875,0.38750001788139343,-74.5999984741211,,,,Forward
1761153061.7202568,-8.933064460754395,-1.7066653966903687,3.883681058883667,-8.730695724487305,-4.169010639190674,1.621856689453125,0.6462892889976501,5.536332607269287,-0.335462749004364,0.15326552093029022,0.627571702003479,-0.48295044898986816,0.5911195874214172,-76.75,0.4625000059604645,-70.5875015258789,,,,Forward
1761153061.7482536,-10.552362442016602,-3.0279548168182373,-0.8401677012443542,-8.823448181152344,-4.252071380615234,0.5502290725708008,-0.42516833543777466,5.813665390014648,-0.26338064670562744,0.17270682752132416,0.6649271249771118,-0.4699022173881531,0.5542888641357422,-74.9124984741211,0.5625,-67.4749984741211,,,,Forward
1761153061.7632563,-13.31941032409668,-1.3033370971679688,-5.289944648742676,-8.786651611328125,-4.347580909729004,-0.3597698211669922,-1.3927788734436035,4.441662311553955,-0.5810306072235107,0.17253656685352325,0.6989763975143433,-0.4478837847709656,0.5301541090011597,-73.48125457763672,0.4625000059604645,-64.2874984741211,,,,Forward
1761153061.7928147,-12.344001770019531,0.4883025884628296,-9.518309593200684,-8.708390235900879,-4.2973833084106445,-1.3901653289794922,-4.020720958709717,2.886399269104004,-0.7227513194084167,0.1488986760377884,0.7407318353652954,-0.39998307824134827,0.5188055038452148,-71.5250015258789,0.6000000238418579,-59.91250228881836,,,,Forward
1761153061.8088138,-10.467388153076172,-3.5760984420776367,-14.33790397644043,-8.643741607666016,-3.9266178607940674,-2.470526695251465,-8.068314552307129,2.2071173191070557,0.049382347613573074,0.11388830840587616,0.7829101085662842,-0.3304915130138397,0.5146421790122986,-70.1187515258789,0.8500000238418579,-52.8125,,,,Forward
1761153061.823813,-12.610893249511719,-16.761465072631836,-15.681933403015137,-8.69666576385498,-3.5023345947265625,-2.8875246047973633,-6.93821382522583,1.1258857250213623,0.5502918362617493,0.09410706162452698,0.7989470362663269,-0.28482696413993835,0.5212496519088745,-70.8375015258789,0.05000000074505806,-44.712501525878906,,,,Forward
1761153061.8533015,-8.418432235717773,-10.521245002746582,-3.2002968788146973,-8.799297332763672,-3.396791934967041,-2.6963462829589844,-2.5241012573242188,-0.73847496509552,0.986449658870697,0.09297583252191544,0.7929589748382568,-0.28078851103782654,0.5326625108718872,-70.1937484741211,-0.13125000894069672,-45.35000228881836,,,,Forward
1761153061.8678396,6.027185916900635,-4.253498554229736,-0.13883112370967865,-8.890066146850586,-3.47481107711792,-2.2646284103393555,1.585800051689148,-1.6535511016845703,0.10558194667100906,0.09542720764875412,0.7786642909049988,-0.2943415939807892,0.5458375811576843,-69.92500305175781,0.15000000596046448,-47.868751525878906,,,,Forward
1761153061.8988345,5.038612365722656,-2.6557435989379883,-9.778019905090332,-8.96373462677002,-3.4873483180999756,-1.930276870727539,0.5461074113845825,-1.9211101531982422,0.1336817443370819,0.09046286344528198,0.7682445049285889,-0.2972690463066101,0.5596855878829956,-69.5562515258789,-0.02500000037252903,-49.21875,,,,Forward
1761153061.912835,-8.569231986999512,-0.8054599165916443,-7.407119274139404,-9.03526496887207,-3.5966339111328125,-1.2901020050048828,0.054971735924482346,-2.375593900680542,-0.24138951301574707,0.07562366127967834,0.7483552098274231,-0.3040367662906647,0.5846429467201233,-69.10625457763672,0.3187499940395355,-50.98749923706055,,,,Forward
1761153061.9278343,-4.237939834594727,0.9861797094345093,-4.674778938293457,-9.00819206237793,-3.8445029258728027,-0.5553016662597656,0.14171460270881653,-4.11533784866333,-1.1796785593032837,0.05412929877638817,0.7248260974884033,-0.3158811032772064,0.6098493337631226,-69.85625457763672,0.16250000894069672,-55.89374923706055,,,,Forward
1761153061.9578357,-3.7508339881896973,-5.108027935028076,0.1615707129240036,-8.945125579833984,-4.024406433105469,0.15810775756835938,0.10994961112737656,-3.7622580528259277,-1.1576874256134033,0.03579764440655708,0.7004712820053101,-0.32524147629737854,0.6342527270317078,-70.82500457763672,0.13125000894069672,-57.09375,,,,Forward
1761153061.9734523,-5.9051103591918945,-10.214859008789062,4.877041816711426,-8.909233093261719,-4.027037620544434,0.8029041290283203,0.2895439863204956,-3.470264434814453,-0.4613009989261627,0.02710707113146782,0.6770099401473999,-0.32950106263160706,0.6575347185134888,-71.95000457763672,0.7250000238418579,-58.70000076293945,,,,Forward
1761153062.0034401,-6.4831743240356445,-9.921638488769531,9.268174171447754,-8.892147064208984,-3.9143624305725098,1.3577852249145508,0.38361725211143494,-2.685913324356079,0.5405179858207703,0.03224168345332146,0.6555580496788025,-0.3375197649002075,0.6747477650642395,-72.58125305175781,0.5687500238418579,-59.56875228881836,,,,Forward
1761153062.0184479,-10.633746147155762,-9.98147964477539,10.23161506652832,-8.905574798583984,-3.6089999675750732,1.9753389358520508,2.8307433128356934,-1.8930102586746216,0.5319659113883972,0.05916876718401909,0.629141628742218,-0.35706761479377747,0.687882661819458,-73.7750015258789,0.20000000298023224,-62.743751525878906,,,,Forward
1761153062.0334442,-14.963841438293457,-5.554441928863525,7.463369846343994,-8.92492389678955,-3.1734976768493652,2.5516204833984375,4.423880100250244,-1.423865795135498,1.4543724060058594,0.08969642221927643,0.6015833616256714,-0.3733142912387848,0.7004916071891785,-73.90625,-0.01875000074505806,-68.20000457763672,,,,Forward
1761153062.0634456,-7.387969970703125,6.462828159332275,10.736672401428223,-8.882464408874512,-3.1772119998931885,2.691328525543213,1.986527681350708,-1.3811051845550537,0.6651344895362854,0.08938872069120407,0.59568190574646,-0.37740185856819153,0.703377902507782,-71.9437484741211,-0.4749999940395355,-69.65625,,,,Forward
1761153062.0782812,0.5289944410324097,7.498077869415283,18.00615692138672,-8.935612678527832,-3.40059757232666,2.197017192840576,-0.6560754179954529,0.9243001937866211,-0.981758177280426,0.08646891266107559,0.6168830394744873,-0.377043217420578,0.6854318976402283,-72.9625015258789,-0.0062500000931322575,-68.17500305175781,,,,Forward
1761153062.1074598,-5.477845191955566,-0.14242158830165863,14.676604270935059,-9.016286849975586,-3.604572296142578,1.3963308334350586,-0.8417784571647644,3.5742335319519043,-0.9060109257698059,0.09231934696435928,0.648311972618103,-0.376680463552475,0.6551950573921204,-73.6187515258789,0.3375000059604645,-64.58125305175781,,,,Forward
1761153062.1364512,-9.226285934448242,-2.6485626697540283,6.091814041137695,-9.026601791381836,-3.814239978790283,0.4562559127807617,-0.25412607192993164,4.611482620239258,-1.0807183980941772,0.10241857171058655,0.6828292608261108,-0.37727847695350647,0.6171836853027344,-74.2125015258789,0.2874999940395355,-61.44375228881836,,,,Forward
1761153062.1394644,-12.40503978729248,-3.1859350204467773,-0.7073206305503845,-8.95456314086914,-3.9701714515686035,-0.538182258605957,-0.4948069751262665,5.120944499969482,-1.221217393875122,0.1085503101348877,0.7180857062339783,-0.3694314658641815,0.5797327756881714,-74.53125,0.3062500059604645,-56.57500076293945,,,,Forward
1761153062.168448,-16.124755859375,-5.506568908691406,-3.243382453918457,-8.828598022460938,-4.091451644897461,-1.2458066940307617,-1.481965184211731,3.81857967376709,-0.7545163035392761,0.10444644838571548,0.7433624267578125,-0.35850363969802856,0.554958164691925,-74.0875015258789,0.4000000059604645,-54.21875,,,,Forward
1761153062.1834538,-12.6779146194458,-7.062435150146484,-5.945802211761475,-8.662881851196289,-4.19623327255249,-1.8926820755004883,-1.501512885093689,2.247434377670288,-1.047731637954712,0.09190317243337631,0.7668251395225525,-0.34299173951148987,0.5346866250038147,-73.90625,0.5,-52.04999923706055,,,,Forward
1761153062.2124507,-11.44399356842041,-4.040464401245117,-8.681733131408691,-8.522192001342773,-4.0400214195251465,-2.6993722915649414,-3.7910358905792236,2.202230215072632,-0.7361903786659241,0.06645623594522476,0.7957174181938171,-0.30225881934165955,0.5206313729286194,-72.5,0.3375000059604645,-48.10000228881836,,,,Forward
1761153062.2404513,-10.89824390411377,-10.127490997314453,-12.197990417480469,-8.427534103393555,-3.770786762237549,-3.3157100677490234,-5.7531352043151855,1.5461610555648804,-0.33790621161460876,0.040743451565504074,0.8169066309928894,-0.26084282994270325,0.5128006935119629,-73.41875457763672,0.09375,-43.40625,,,,Forward
1761153062.2564461,-11.71447467803955,-13.795744895935059,-3.4336767196655273,-8.406231880187988,-3.7744696140289307,-3.365231513977051,-3.1349666118621826,0.5602245330810547,0.037165042012929916,0.03351529315114021,0.818777859210968,-0.25594913959503174,0.512805700302124,-74.5562515258789,0.03125,-40.34375,,,,Forward
1761153062.2734506,-0.08377740532159805,-6.022398471832275,-0.9550623893737793,-8.487982749938965,-3.996727705001831,-2.8664350509643555,1.4428576231002808,-0.9400604963302612,-0.3403496742248535,0.03779914975166321,0.802912712097168,-0.2784585654735565,0.5257026553153992,-75.0875015258789,0.09375,-43.06875228881836,,,,Forward
1761153062.2884433,8.315505981445312,-2.0286099910736084,-8.096487998962402,-8.488905906677246,-4.301459312438965,-2.381603240966797,2.740335464477539,-2.105591297149658,-0.5688132643699646,0.03781997412443161,0.7873729467391968,-0.304135799407959,0.5348971486091614,-74.95000457763672,0.45625001192092896,-46.21875,,,,Forward
1761153062.3184388,-3.3929848670959473,-0.3303223252296448,-8.589577674865723,-8.467941284179688,-4.590456485748291,-1.8595142364501953,1.7409597635269165,-1.5912429094314575,-1.2444301843643188,0.028269929811358452,0.7706992030143738,-0.3236852288246155,0.5481345653533936,-74.76875305175781,0.6312500238418579,-47.962501525878906,,,,Forward
1761153062.3328493,-7.062435150146484,-4.2032318115234375,-3.092582941055298,-8.424578666687012,-4.8993306159973145,-1.122117042541504,1.5247135162353516,-3.146505832672119,-1.3299514055252075,0.013986735604703426,0.7463222146034241,-0.34524983167648315,0.5688673853874207,-74.95000457763672,0.08749999850988388,-51.47500228881836,,,,Forward
1761153062.3478475,-3.5018954277038574,-4.357621669769287,-0.4416266083717346,-8.369532585144043,-5.093201160430908,-0.4963407516479492,1.4281967878341675,-3.2625701427459717,-1.1601308584213257,0.002185621066018939,0.7247709631919861,-0.359943151473999,0.5874889492988586,-76.98750305175781,1.0187500715255737,-55.38750076293945,,,,Forward
1761153062.3788445,-5.868008613586426,-5.4024457931518555,1.084318995475769,-8.33202838897705,-5.178066730499268,0.031836509704589844,0.7354755997657776,-2.6089444160461426,-0.6506692171096802,-0.008212913759052753,0.7059106826782227,-0.3668196201324463,0.6058596968650818,-77.80000305175781,0.9937500357627869,-56.118751525878906,,,,Forward
1761153062.3928437,-8.279601097106934,-11.16513442993164,4.342062950134277,-8.31187629699707,-5.17764139175415,0.5838203430175781,0.43859511613845825,-2.666365623474121,-0.2755979597568512,-0.01215810514986515,0.6856353282928467,-0.3738185465335846,0.6245126724243164,-79.17500305175781,1.087499976158142,-56.60000228881836,,,,Forward
1761153062.422834,-7.519620418548584,-11.72285270690918,8.844500541687012,-8.33558177947998,-5.041779518127441,1.1552791595458984,1.6102346181869507,-2.166677951812744,0.3975755274295807,0.0011122662108391523,0.6641656756401062,-0.38797876238822937,0.6390268206596375,-79.9000015258789,0.9000000357627869,-58.65625,,,,Forward
1761153062.4508348,-9.398628234863281,-7.457385540008545,8.453140258789062,-8.3280611038208,-4.913863658905029,1.6533145904541016,3.209479808807373,-1.0463510751724243,0.5820568203926086,0.022488344460725784,0.6443814635276794,-0.4111580550670624,0.6443724036216736,-79.7750015258789,0.956250011920929,-61.681251525878906,,,,Forward
1761153062.4538302,-13.163824081420898,-1.3919017314910889,6.041547775268555,-8.229328155517578,-4.8573198318481445,2.218264102935791,3.637085437774658,-0.9608299732208252,-0.4661879241466522,0.03256325423717499,0.6211910247802734,-0.4327464997768402,0.6525272130966187,-81.53125,0.643750011920929,-66.20000457763672,,,,Forward
1761153062.483827,0.7575870752334595,5.337817668914795,12.417008399963379,-8.20208740234375,-4.933541297912598,2.1498942375183105,0.6878281235694885,-2.244868755340576,-0.11066434532403946,0.02749059721827507,0.624233603477478,-0.4314773976802826,0.6506949663162231,-80.1875,0.5687500238418579,-66.9375,,,,Forward
1761153062.4988256,3.657482147216797,-6.0212016105651855,17.511871337890625,-8.297357559204102,-5.032014846801758,1.438328742980957,-0.5033590793609619,3.0562198162078857,-0.5419352054595947,0.045787226408720016,0.651608943939209,-0.4370476007461548,0.618303120136261,-80.625,0.7125000357627869,-64.23750305175781,,,,Forward
1761153062.5278826,-7.203660011291504,-3.0602688789367676,8.715243339538574,-8.295478820800781,-5.194418907165527,0.6626768112182617,1.328014850616455,5.190583229064941,-1.0000841617584229,0.0702979788184166,0.6791778802871704,-0.4494308829307556,0.5760098695755005,-81.64375305175781,1.037500023841858,-62.5625,,,,Forward
1761153062.5428324,-11.568462371826172,-3.7292912006378174,-0.15319296717643738,-8.302122116088867,-5.2146897315979,-0.3433847427368164,0.6670587062835693,5.43737268447876,-1.0037493705749512,0.09048780798912048,0.7136622071266174,-0.4405198395252228,0.537066638469696,-81.78125,1.368749976158142,-60.181251525878906,,,,Forward
1761153062.5580928,-16.774629592895508,-3.6455137729644775,-4.489272117614746,-8.316611289978027,-5.051990032196045,-1.243992805480957,-2.7635605335235596,4.3756890296936035,0.7482121586799622,0.09161175042390823,0.7449910044670105,-0.409407377243042,0.5186342000961304,-79.0250015258789,1.1125000715255737,-54.98125076293945,,,,Forward
1761153062.5881014,-12.401449203491211,-9.015645027160645,-5.455105781555176,-8.220246315002441,-4.944780349731445,-2.0525217056274414,-2.591296434402466,2.2510995864868164,-0.13754241168498993,0.08469416946172714,0.772942841053009,-0.3808835446834564,0.5003140568733215,-77.5562515258789,0.762499988079071,-52.98749923706055,,,,Forward
1761153062.6030993,-12.2374849319458,-5.148719787597656,-9.574560165405273,-8.168614387512207,-4.537916660308838,-2.9861602783203125,-4.620590686798096,2.525988817214966,0.401240736246109,0.06999650597572327,0.8045497536659241,-0.3300016522407532,0.48877301812171936,-75.84375,0.84375,-48.38750076293945,,,,Forward
1761153062.6330967,-12.05197811126709,-9.304079055786133,-11.500244140625,-8.14862060546875,-4.084522247314453,-3.626673698425293,-5.601640224456787,1.7453030347824097,0.6736866235733032,0.05711411312222481,0.8255808353424072,-0.2855992913246155,0.4833086431026459,-75.5562515258789,0.36250001192092896,-43.42499923706055,,,,Forward
1761153062.6630871,-13.92859172821045,-12.68509578704834,-7.869091987609863,-8.238391876220703,-3.713937282562256,-3.8172874450683594,-3.1203057765960693,0.6127589344978333,1.2454564571380615,0.061390865594148636,0.831139087677002,-0.26362988352775574,0.485734760761261,-73.46875,0.24375000596046448,-39.91875076293945,,,,Forward
1761153062.6660864,-8.788249969482422,-3.993788480758667,-2.162653923034668,-8.376659393310547,-3.6433420181274414,-3.576833724975586,-0.4679289162158966,-0.19724838435649872,1.5081285238265991,0.06845364719629288,0.8231765031814575,-0.2668686509132385,0.4964630901813507,-73.4625015258789,0.03125,-40.48125076293945,,,,Forward
1761153062.6935673,4.742997646331787,-2.975294589996338,0.005984100513160229,-8.46107292175293,-3.8545331954956055,-3.128729820251465,1.8680198192596436,-1.6059036254882812,-0.11432953923940659,0.07237109541893005,0.8088440895080566,-0.28828588128089905,0.50737065076828,-75.0062484741211,0.15000000596046448,-43.275001525878906,,,,Forward
1761153062.7085083,5.631038188934326,-6.776395320892334,-7.650074005126953,-8.53292465209961,-3.9343385696411133,-2.818922996520996,1.7788335084915161,-1.4702916145324707,-0.1595335602760315,0.07249680906534195,0.7990120053291321,-0.2979029417037964,0.5172793865203857,-74.0625,0.3187499940395355,-44.775001525878906,,,,Forward
1761153062.7384791,-6.878124713897705,-3.4396607875823975,-8.462714195251465,-8.651118278503418,-4.0167388916015625,-2.2934865951538086,0.5619899034500122,-1.6645467281341553,-0.03980397805571556,0.06478233635425568,0.78275066614151,-0.30607250332832336,0.5379816889762878,-73.5062484741211,0.29375001788139343,-47.0,,,,Forward
1761153062.753472,-4.5072245597839355,-0.8868436813354492,-4.348047256469727,-8.715635299682617,-4.203189373016357,-1.614633560180664,0.7147061824798584,-3.4042909145355225,-0.5920261740684509,0.05192366987466812,0.7613141536712646,-0.31970348954200745,0.5616889595985413,-72.8812484741211,0.42500001192092896,-50.85625076293945,,,,Forward
1761153062.7684736,-3.607215642929077,-0.4021315276622772,-2.093238353729248,-8.690006256103516,-4.449937343597412,-0.9581003189086914,0.9333959817886353,-3.3798563480377197,-1.1686829328536987,0.03621953725814819,0.7399466037750244,-0.3350139558315277,0.5821793675422668,-73.0875015258789,0.737500011920929,-53.57500076293945,,,,Forward
1761153062.7984676,-6.225857734680176,-6.2497944831848145,-0.039495062083005905,-8.644817352294922,-4.630117893218994,-0.25547313690185547,0.8698659539222717,-3.107410430908203,-1.0782748460769653,0.025956686586141586,0.7157844305038452,-0.35155394673347473,0.6028174161911011,-74.39375305175781,0.5375000238418579,-55.23749923706055,,,,Forward
1761153062.8134668,-8.414841651916504,-8.168296813964844,0.8952214121818542,-8.628874778747559,-4.639531135559082,0.503361701965332,1.587021827697754,-3.205148935317993,-0.41854041814804077,0.023667555302381516,0.6883199214935303,-0.36508414149284363,0.626393735408783,-76.29375457763672,0.793749988079071,-57.23749923706055,,,,Forward
1761153062.8434637,-6.990625858306885,-10.383610725402832,6.568148612976074,-8.593729019165039,-4.561269283294678,1.2564849853515625,1.7287424802780151,-3.1587231159210205,0.15689462423324585,0.029165277257561684,0.6596274375915527,-0.3810569941997528,0.6471759080886841,-77.2125015258789,0.699999988079071,-59.73749923706055,,,,Forward
1761153062.858462,-9.143705368041992,-7.549540996551514,8.578805923461914,-8.557082176208496,-4.388747215270996,1.936840534210205,2.8111956119537354,-2.556410074234009,0.44522303342819214,0.04332951456308365,0.6319848895072937,-0.39938172698020935,0.6627306938171387,-78.0,0.675000011920929,-64.32500457763672,,,,Forward
1761153062.8734605,-13.187760353088379,-3.506682872772217,6.981051445007324,-8.464712142944336,-4.272568225860596,2.5159311294555664,2.857621431350708,-1.7231897115707397,0.1385686695575714,0.051683105528354645,0.6075326204299927,-0.41584569215774536,0.6747632026672363,-78.89375305175781,0.48125001788139343,-66.9312515258789,,,,Forward
1761153062.902667,-8.934261322021484,3.3642611503601074,10.75941276550293,-8.295968055725098,-4.275740146636963,3.02176570892334,1.5332655906677246,-2.264416456222534,-0.03369532525539398,0.045174092054367065,0.5864680409431458,-0.42460930347442627,0.6882743239402771,-79.7750015258789,0.20624999701976776,-70.51250457763672,,,,Forward
1761153062.9175808,10.034139633178711,1.1142394542694092,18.7242488861084,-8.412588119506836,-4.36625862121582,2.5298733711242676,0.5277814269065857,0.38185185194015503,-0.649447500705719,0.06205139309167862,0.6059752702713013,-0.43513768911361694,0.6630224585533142,-78.8375015258789,0.3687500059604645,-69.51875305175781,,,,Forward
1761153062.9485795,-2.451087474822998,-1.8790074586868286,17.28806495666504,-8.547161102294922,-4.516722679138184,1.667750358581543,1.397653579711914,5.40927267074585,-1.037957787513733,0.0903131365776062,0.6378408670425415,-0.4486316442489624,0.6194612979888916,-78.75,0.5562500357627869,-67.6937484741211,,,,Forward
1761153062.9635808,-10.181347846984863,-2.402017831802368,6.047531604766846,-8.582612991333008,-4.683914661407471,0.7973690032958984,1.6004607677459717,5.537554740905762,-1.360494613647461,0.11622236669063568,0.6677213311195374,-0.45769554376602173,0.5754609704017639,-79.9437484741211,0.5062500238418579,-63.73125076293945,,,,Forward
1761153062.9785767,-12.837091445922852,-3.904026985168457,-1.6001484394073486,-8.635608673095703,-4.64543342590332,-0.28697967529296875,0.30664822459220886,5.653618812561035,-0.5199440717697144,0.13604311645030975,0.7043572664260864,-0.44041481614112854,0.5398222208023071,-78.3687515258789,0.731249988079071,-60.85625076293945,,,,Forward
1761153063.0085795,-15.27621078491211,-5.641809940338135,-1.348816156387329,-8.582520484924316,-4.624589920043945,-1.090707778930664,-1.903462290763855,4.480757713317871,0.40368419885635376,0.14558017253875732,0.7310253381729126,-0.42475563287734985,0.5138006806373596,-77.1937484741211,0.8062500357627869,-58.25625228881836,,,,Forward
1761153063.023578,-12.71142578125,-6.374263763427734,-4.399510383605957,-8.436583518981934,-4.63576602935791,-1.8894071578979492,-0.9553993940353394,3.329887628555298,-0.7032036185264587,0.14571641385555267,0.7583315968513489,-0.405558705329895,0.48910343647003174,-76.0625,0.6625000238418579,-56.368751525878906,,,,Forward
1761153063.053567,-12.07591438293457,-1.9627848863601685,-7.937310695648193,-8.334000587463379,-4.317562103271484,-2.8529300689697266,-3.613884925842285,2.8595213890075684,-0.047134362161159515,0.13379479944705963,0.7921541929244995,-0.3581494092941284,0.4757308065891266,-74.61250305175781,0.824999988079071,-52.81875228881836,,,,Forward
1761153063.0805678,-10.742656707763672,-8.116833686828613,-9.293307304382324,-8.225820541381836,-3.814527988433838,-3.744511604309082,-6.159971237182617,2.512549877166748,0.4220101535320282,0.11899946630001068,0.8226122260093689,-0.3037177622318268,0.46572935581207275,-73.5,0.45000001788139343,-43.59375,,,,Forward
1761153063.096566,-13.519279479980469,-11.957428932189941,-6.891289710998535,-8.214621543884277,-3.255434274673462,-4.261249542236328,-4.575387001037598,1.9542189836502075,1.3004343509674072,0.1230999007821083,0.8378755450248718,-0.2657097280025482,0.46066176891326904,-72.61250305175781,0.05000000074505806,-40.337501525878906,,,,Forward
1761153063.1135583,-8.630269050598145,-6.876927852630615,-2.459465265274048,-8.282838821411133,-2.8806562423706055,-4.396875381469727,-1.8802493810653687,1.2724933624267578,2.1079981327056885,0.13608993589878082,0.8399888277053833,-0.24966292083263397,0.46213284134864807,-71.48125457763672,-0.5687500238418579,-39.64374923706055,,,,Forward
1761153063.1275632,2.4618587493896484,-3.1093385219573975,-3.664663076400757,-8.365277290344238,-2.737588405609131,-4.331724166870117,0.20035766065120697,-0.12027936428785324,1.46048104763031,0.14860819280147552,0.8358807563781738,-0.24971823394298553,0.4656819999217987,-71.65625,-0.4625000059604645,-39.38125228881836,,,,Forward
1761153063.1575613,2.644972324371338,-4.764540672302246,-11.22377872467041,-8.481919288635254,-2.5593209266662598,-4.212248802185059,0.5363335609436035,-0.3536298871040344,1.023101568222046,0.15756076574325562,0.8305818438529968,-0.24690355360507965,0.4736529290676117,-71.2437515258789,-0.4937500059604645,-39.78750228881836,,,,Forward
