timestamp,accel_x,accel_y,accel_z,gravity_x,gravity_y,gravity_z,gyro_x,gyro_y,gyro_z,orient_x,orient_y,orient_z,orient_w,mag_x,mag_y,mag_z,mag_cal_x,mag_cal_y,mag_cal_z,label
1761152765.2224064,0.02992050163447857,-8.842106819152832,5.080501079559326,-0.15654516220092773,-8.68793773651123,4.553168773651123,-0.08797073364257812,-0.1276097446680069,0.012730431742966175,-0.3188294470310211,-0.40777453780174255,0.6834213137626648,0.5147843956947327,-95.8125,-0.0,-90.8499984741211,,,,Backward
1761152765.2377484,0.03111732192337513,-9.007267951965332,5.046990394592285,-0.1376662254333496,-8.679609298706055,4.5696330070495605,-0.024440744891762733,-0.12272282689809799,0.020060814917087555,-0.31715619564056396,-0.4080503582954407,0.684184730052948,0.5145854949951172,-95.83125305175781,-0.6000000238418579,-89.8812484741211,,,,Backward
1761152765.267429,0.040691882371902466,-8.840909957885742,5.0577616691589355,-0.12459039688110352,-8.67074203491211,4.586809158325195,0.0024373261258006096,-0.12272282689809799,0.040830232203006744,-0.3156481087207794,-0.4081469774246216,0.6850724220275879,0.5142550468444824,-96.51250457763672,-0.75,-90.3375015258789,,,,Backward
1761152765.2821054,0.0610378235578537,-8.812186241149902,5.062548637390137,-0.11149883270263672,-8.664047241210938,4.599777698516846,-0.020775552839040756,-0.11661417782306671,0.049382347613573074,-0.31426602602005005,-0.4084036648273468,0.6858572959899902,0.5138512253761292,-96.48750305175781,-0.2750000059604645,-90.1937484741211,,,,Backward
1761152765.3123438,0.08736786246299744,-8.899554252624512,5.051777362823486,-0.10082197189331055,-8.653005599975586,4.620761871337891,-0.011001708917319775,-0.10806205868721008,0.0530475378036499,-0.3127666413784027,-0.4082452654838562,0.6868218183517456,0.5136035680770874,-96.3812484741211,-0.5625,-90.8125,,,,Backward
1761152765.3284004,0.11848518252372742,-8.793037414550781,5.069729804992676,-0.09021663665771484,-8.640990257263184,4.643409252166748,0.03053712658584118,-0.0970664843916893,0.05915619060397148,-0.3112904131412506,-0.4079597592353821,0.687737762928009,0.5135015845298767,-96.34375,-0.3499999940395355,-90.83125305175781,,,,Backward
1761152765.343417,0.13045339286327362,-8.737983703613281,5.052974224090576,-0.08131647109985352,-8.628530502319336,4.666686058044434,0.042754434049129486,-0.05919284373521805,0.05671272799372673,-0.3099609911441803,-0.4075177013874054,0.6885606050491333,0.513554036617279,-96.5875015258789,-0.24375000596046448,-91.15625,,,,Backward
1761152765.3733292,0.15438978374004364,-8.674551963806152,5.033824920654297,-0.07359933853149414,-8.619720458984375,4.683066368103027,0.017098091542720795,-0.048197269439697266,0.05549100041389465,-0.30896395444869995,-0.40725040435791016,0.6891300082206726,0.513603150844574,-96.375,-0.53125,-91.14375305175781,,,,Backward
1761152765.3880758,0.16875162720680237,-8.594365119934082,5.043399810791016,-0.06738996505737305,-8.615907669067383,4.690171718597412,-0.030549397692084312,-0.021319197490811348,0.05426926910877228,-0.30838507413864136,-0.4072445333003998,0.6893908977508545,0.5136056542396545,-96.63750457763672,-0.3687500059604645,-90.67500305175781,,,,Backward
1761152765.4170735,0.14122477173805237,-8.662583351135254,5.008691787719727,-0.06159496307373047,-8.611711502075195,4.6979498863220215,-0.05131881684064865,-0.0005497788079082966,0.05182580649852753,-0.3078513443470001,-0.4071615934371948,0.6896098256111145,0.513697624206543,-96.45625305175781,-0.38750001788139343,-91.0062484741211,,,,Backward
1761152765.4469407,0.14840568602085114,-8.733196258544922,4.987149238586426,-0.05233621597290039,-8.606779098510742,4.707093715667725,-0.03665804862976074,0.004337143152952194,0.05060407891869545,-0.30719009041786194,-0.4070886969566345,0.6897636651992798,0.513944685459137,-96.3375015258789,-0.637499988079071,-90.6624984741211,,,,Backward
1761152765.449944,0.15917706489562988,-8.624285697937012,4.9404730796813965,-0.04716682434082031,-8.59968376159668,4.72009801864624,-0.01955382339656353,0.015332717448472977,0.043273694813251495,-0.30662158131599426,-0.40670305490493774,0.6899896264076233,0.5142860412597656,-96.08125305175781,-0.21875,-90.9749984741211,,,,Backward
1761152765.4789748,0.06941556185483932,-8.473485946655273,4.896190643310547,-0.04554414749145508,-8.591992378234863,4.734100818634033,-0.02199728414416313,0.02632829174399376,0.026169467717409134,-0.306194543838501,-0.40614697337150574,0.6902337074279785,0.5146523714065552,-95.9749984741211,-0.7437500357627869,-90.48750305175781,,,,Backward
1761152765.492876,0.0335109606385231,-8.495028495788574,4.956031799316406,-0.0450434684753418,-8.586339950561523,4.744349002838135,-0.023219013586640358,0.029993483796715736,0.02739119715988636,-0.30593159794807434,-0.4057018458843231,0.69038987159729,0.5149502754211426,-95.88750457763672,-0.4937500059604645,-90.90625,,,,Backward
1761152765.523029,0.019149120897054672,-8.716440200805664,4.956031799316406,-0.040030479431152344,-8.586459159851074,4.744179725646973,-0.06475785374641418,0.03854559734463692,0.02739119715988636,-0.30584466457366943,-0.40577802062034607,0.690201997756958,0.51519376039505,-96.5062484741211,-0.41875001788139343,-90.83125305175781,,,,Backward
1761152765.554728,-0.04308552294969559,-8.967772483825684,4.991936683654785,-0.04317665100097656,-8.589176177978516,4.739230632781982,-0.10385322570800781,0.044654250144958496,0.043273694813251495,-0.30615806579589844,-0.4058524966239929,0.6900643110275269,0.515133261680603,-96.3499984741211,-0.3812499940395355,-90.42500305175781,,,,Backward
1761152765.555741,0.05984100326895714,-9.209529876708984,5.181034088134766,-0.0496058464050293,-8.593335151672363,4.731621742248535,-0.12706610560417175,0.06298020482063293,0.08969945460557938,-0.30662626028060913,-0.405976802110672,0.6899653077125549,0.5148894190788269,-95.8187484741211,-0.21250000596046448,-90.3187484741211,,,,Backward
1761152765.583858,0.15079933404922485,-10.054485321044922,5.465877056121826,-0.0910649299621582,-8.58647346496582,4.743448734283447,0.01587636210024357,0.09841039031744003,0.19354654848575592,-0.3076745569705963,-0.4044383764266968,0.6909467577934265,0.5141581892967224,-95.70625305175781,-0.8375000357627869,-90.63750457763672,,,,Backward
1761152765.598278,0.14122477173805237,-10.72829532623291,5.632235050201416,-0.1804509162902832,-8.56612491607666,4.777556896209717,0.260222464799881,0.18270979821681976,0.35848015546798706,-0.30966565012931824,-0.4007527530193329,0.6932571530342102,0.5127366781234741,-95.48750305175781,-0.4375,-90.54375457763672,,,,Backward
1761152765.6276734,-0.11130426824092865,-11.017925262451172,5.824923038482666,-0.3113415241241455,-8.561640739440918,4.7788591384887695,0.25289207696914673,0.24379631876945496,0.5429614782333374,-0.3138413727283478,-0.3974076211452484,0.6957015991210938,0.5094802975654602,-94.57500457763672,-0.71875,-90.70625305175781,,,,Backward
1761152765.6438813,-0.1400279402732849,-10.679224967956543,5.602314472198486,-0.5053791999816895,-8.572998046875,4.7417731285095215,-0.04643189162015915,0.32565227150917053,0.75676429271698,-0.3213140666484833,-0.39379778504371643,0.69815593957901,0.5042409300804138,-93.8812484741211,-0.800000011920929,-90.20000457763672,,,,Backward
1761152765.6588912,-0.8018694519996643,-9.687061309814453,5.404839515686035,-0.745919942855835,-8.566691398620605,4.721389293670654,-0.1502789855003357,0.4380514621734619,0.927806556224823,-0.329694926738739,-0.3881489634513855,0.7017785906791687,0.49814504384994507,-92.96875,-0.4000000059604645,-89.86250305175781,,,,Backward
1761152765.6887949,-1.0268715620040894,-8.626679420471191,5.018266677856445,-0.9689953327178955,-8.540637016296387,4.728072643280029,-0.09041418880224228,0.434386283159256,0.9803409576416016,-0.33654820919036865,-0.3817761242389679,0.7057804465293884,0.49280449748039246,-92.03125,-0.6937500238418579,-89.8375015258789,,,,Backward
1761152765.7161918,-0.8832532167434692,-7.402331829071045,4.8303656578063965,-1.155534029006958,-8.493865966796875,4.770230770111084,0.07085423171520233,0.41606032848358154,0.91925448179245,-0.34129464626312256,-0.3746824562549591,0.709730863571167,0.48929864168167114,-90.10625457763672,-0.949999988079071,-89.6624984741211,,,,Backward
1761152765.73343,-0.6139686703681946,-6.045137882232666,4.8100199699401855,-1.2920143604278564,-8.430259704589844,4.847424507141113,0.33230456709861755,0.4075081944465637,0.6968995332717896,-0.3437744379043579,-0.36708810925483704,0.7130993604660034,0.48842066526412964,-89.9312515258789,-0.75,-90.5062484741211,,,,Backward
1761152765.7478368,-0.39136016368865967,-5.488616943359375,4.182886123657227,-1.3736534118652344,-8.382867813110352,4.906802177429199,0.38239550590515137,0.41606032848358154,0.4366708993911743,-0.3455204665660858,-0.3612807095050812,0.7144712209701538,0.48951274156570435,-89.26250457763672,-1.162500023841858,-90.3375015258789,,,,Backward
1761152765.7627273,-0.4416266083717346,-4.656826972961426,3.5832791328430176,-1.3977322578430176,-8.369537353515625,4.922732353210449,0.19180555641651154,0.42583414912223816,0.10436021536588669,-0.3473387360572815,-0.3584020435810089,0.713107168674469,0.49232301115989685,-88.3499984741211,-1.40625,-89.7874984741211,,,,Backward
1761152765.808623,-0.6498733162879944,-3.547374725341797,3.1440463066101074,-1.3452253341674805,-8.397159576416016,4.8902130126953125,-0.09652284532785416,0.4038430154323578,-0.30369776487350464,-0.3487261235713959,-0.3593657910823822,0.7087231278419495,0.4969484806060791,-88.42500305175781,-1.03125,-90.0625,,,,Backward
1761152765.810979,-0.6379050612449646,-3.2134618759155273,3.1488335132598877,-1.199509859085083,-8.479927062988281,4.784153461456299,-0.4166162312030792,0.3036611080169678,-0.7361903786659241,-0.3496575951576233,-0.3659220337867737,0.7008589506149292,0.5026304721832275,-88.7437515258789,-0.893750011920929,-89.07500457763672,,,,Backward
1761152765.8373828,-0.2166244238615036,-4.266663551330566,3.498305082321167,-0.9467966556549072,-8.609710693359375,4.605710983276367,-0.904086709022522,0.139949232339859,-1.1576874256134033,-0.3494666814804077,-0.37832173705101013,0.6894533038139343,0.50931316614151,-89.9312515258789,-0.8500000238418579,-88.85625457763672,,,,Backward
1761152765.8529541,0.43205204606056213,-8.071354866027832,3.8609414100646973,-0.6403489112854004,-8.73381233215332,4.421152591705322,-1.0897897481918335,-0.020097466185688972,-1.4728938341140747,-0.34761860966682434,-0.39220181107521057,0.6769562363624573,0.516787588596344,-90.8687515258789,-0.30000001192092896,-87.76250457763672,,,,Backward
1761152765.8680115,1.060382604598999,-10.961674690246582,4.494059085845947,-0.3455471992492676,-8.80975341796875,4.301739692687988,-0.8136786222457886,-0.06285803020000458,-1.5180978775024414,-0.3440384268760681,-0.40296995639801025,0.6660809516906738,0.5249658226966858,-92.6937484741211,0.16875000298023224,-86.20000457763672,,,,Backward
1761152765.8977065,0.8114439845085144,-11.6654052734375,4.849514961242676,-0.08699464797973633,-8.846311569213867,4.239259243011475,-0.33353856205940247,-0.04697553813457489,-1.3580511808395386,-0.33941060304641724,-0.4107702374458313,0.6576015949249268,0.5325677394866943,-94.26250457763672,-0.3499999940395355,-86.28125,,,,Backward
1761152765.9255755,0.6031973361968994,-11.483488082885742,4.716667652130127,0.12818622589111328,-8.867500305175781,4.193697929382324,-0.21747416257858276,-0.09340129792690277,-1.1356961727142334,-0.3352130055427551,-0.41699662804603577,0.6507391929626465,0.5387806296348572,-95.20625305175781,0.0625,-86.40625,,,,Backward
1761152765.9428976,0.20824669301509857,-10.907817840576172,4.559884548187256,0.31651830673217773,-8.875301361083984,4.167128562927246,-0.10140976309776306,-0.1019534096121788,-0.9842016696929932,-0.33093830943107605,-0.42200469970703125,0.6451804637908936,0.5441820025444031,-96.1312484741211,0.3062500059604645,-86.0999984741211,,,,Backward
1761152765.9596765,0.4392329752445221,-10.013792991638184,4.705896377563477,0.5581998825073242,-8.84537124633789,4.205226421356201,0.05985865741968155,-0.1825876235961914,-0.9768712520599365,-0.32255053520202637,-0.4261777997016907,0.6404634714126587,0.5514890551567078,-96.48125457763672,-0.13125000894069672,-86.4937515258789,,,,Backward
1761152765.9719565,1.9998862743377686,-8.667370796203613,4.640071392059326,0.8666191101074219,-8.785054206848145,4.278774738311768,0.2932091951370239,-0.3047606647014618,-1.1857872009277344,-0.3107488453388214,-0.4305262565612793,0.6351025700569153,0.5610054731369019,-98.34375,0.15000000596046448,-87.53125,,,,Backward
1761152766.0033438,3.291255235671997,-6.879321575164795,2.995640516281128,1.2366621494293213,-8.723848342895508,4.3129167556762695,0.4618079960346222,-0.3597385287284851,-1.5315369367599487,-0.2982063889503479,-0.4373219609260559,0.6269415020942688,0.5716352462768555,-99.8125,0.16875000298023224,-87.7562484741211,,,,Backward
1761152766.0173445,3.1967062950134277,-6.124128341674805,2.2260851860046387,1.6367905139923096,-8.7171630859375,4.191433906555176,0.031758859753608704,-0.4367075562477112,-1.8125349283218384,-0.2889759838581085,-0.45040225982666016,0.6146116852760315,0.5795543789863586,-101.64375305175781,0.5062500238418579,-86.6500015258789,,,,Backward
1761152766.061869,4.365999698638916,-8.675748825073242,2.1578664779663086,2.006519317626953,-8.779747009277344,3.8892202377319336,-1.257166862487793,-0.6578407883644104,-1.7636656761169434,-0.28563833236694336,-0.4692370593547821,0.5990163087844849,0.5825863480567932,-103.3812484741211,0.574999988079071,-86.1875,,,,Backward
1761152766.0648732,4.8303656578063965,-13.89627742767334,4.178098678588867,2.260995388031006,-8.84191608428955,3.5978517532348633,-1.4599740505218506,-0.596754252910614,-1.3873727321624756,-0.28495731949806213,-0.48520365357398987,0.5868891477584839,0.5821837186813354,-105.4937515258789,0.574999988079071,-83.53125,,,,Backward
1761152766.0777915,4.067991256713867,-18.182090759277344,5.634628772735596,2.3472869396209717,-8.898941040039062,3.396353244781494,-1.0018250942230225,-0.5601023435592651,-0.7044253945350647,-0.28625091910362244,-0.4949280023574829,0.5819500088691711,0.5783087611198425,-107.3687515258789,0.6500000357627869,-82.2437515258789,,,,Backward
1761152766.107892,1.9771467447280884,-20.865360260009766,5.343801498413086,2.2266201972961426,-9.026721954345703,3.129945755004883,-0.7953526973724365,-0.4305989146232605,0.11535578966140747,-0.2963176369667053,-0.5026604533195496,0.5804727077484131,0.5679610371589661,-107.6937484741211,0.5687500238418579,-81.01875305175781,,,,Backward
1761152766.1228223,-0.9119768738746643,-20.872541427612305,5.020659923553467,1.887812852859497,-9.225936889648438,2.748516082763672,-1.8863580226898193,-0.21435260772705078,1.2185784578323364,-0.31718164682388306,-0.5092232823371887,0.5805128812789917,0.5505381226539612,-106.46875,1.09375,-79.1500015258789,,,,Backward
1761152766.152786,-4.821988105773926,-21.08916664123535,7.517226696014404,1.3767523765563965,-9.393060684204102,2.4720587730407715,-1.7715153694152832,-0.07385361194610596,2.0493552684783936,-0.33879485726356506,-0.5091376900672913,0.5881655216217041,0.5292052030563354,-104.5374984741211,1.381250023841858,-77.66875457763672,,,,Backward
1761152766.1689599,-6.734506607055664,-18.640472412109375,8.181462287902832,0.6543922424316406,-9.481142044067383,2.432253360748291,-0.9028649926185608,-0.09584476053714752,3.0817174911499023,-0.35881033539772034,-0.49727967381477356,0.6072282195091248,0.5052148699760437,-101.0,1.0812500715255737,-77.15625,,,,Backward
1761152766.1837375,-6.898470878601074,-15.438979148864746,7.744622707366943,-0.26767921447753906,-9.45669937133789,2.595244884490967,0.48868605494499207,-0.10317514091730118,4.081092834472656,-0.3780626356601715,-0.4741235673427582,0.6354815363883972,0.47795265913009644,-94.9749984741211,0.6875,-78.8812484741211,,,,Backward
1761152766.2142458,-5.5185370445251465,-11.680963516235352,6.328784465789795,-1.310347557067871,-9.289477348327637,2.8678741455078125,1.0567907094955444,0.010445795953273773,4.9301958084106445,-0.3975139260292053,-0.44250619411468506,0.6671634316444397,0.4484015107154846,-90.46875,0.4937500059604645,-79.54375457763672,,,,Backward
1761152766.2284553,-4.656826972961426,-8.720030784606934,4.729832649230957,-2.3998055458068848,-8.970664024353027,3.1629462242126465,1.4807312488555908,0.24501805007457733,5.3602447509765625,-0.41743791103363037,-0.4056294858455658,0.698134183883667,0.41691601276397705,-85.4312515258789,-0.28125,-81.42500305175781,,,,Backward
1761152766.2586462,-3.9064207077026367,-6.472403049468994,3.477959156036377,-3.450424909591675,-8.498619079589844,3.4791007041931152,1.615121603012085,0.39040398597717285,5.5056304931640625,-0.435433954000473,-0.3647918403148651,0.7270150184631348,0.3857114613056183,-80.9375,-0.5875000357627869,-82.64375305175781,,,,Backward
1761152766.2729902,-3.0686466693878174,-4.508420944213867,2.546833038330078,-4.398897171020508,-7.902136325836182,3.800269603729248,2.0219578742980957,0.49547278881073,5.323592662811279,-0.4504231810569763,-0.3215980529785156,0.7525590062141418,0.35685932636260986,-77.3499984741211,-1.4812500476837158,-83.84375,,,,Backward
1761152766.287929,-2.5839345455169678,-3.065056085586548,1.9460294246673584,-5.210872650146484,-7.262988567352295,4.0412750244140625,2.047614097595215,0.5956547260284424,4.906982898712158,-0.463794082403183,-0.2809230089187622,0.7726339101791382,0.33017292618751526,-72.6624984741211,-2.5625,-85.9000015258789,,,,Backward
1761152766.318026,-2.9154536724090576,-1.7006813287734985,1.4960250854492188,-5.86211633682251,-6.686401844024658,4.142914295196533,1.6200084686279297,0.6506325602531433,4.298561096191406,-0.476391077041626,-0.24878475069999695,0.7863184809684753,0.3047310411930084,-70.46875,-3.5,-86.2562484741211,,,,Backward
1761152766.346448,-3.1009607315063477,0.26330041885375977,1.3966890573501587,-6.346141815185547,-6.247314453125,4.115050792694092,0.5937548875808716,0.5980981588363647,3.5227620601654053,-0.48813050985336304,-0.2280154824256897,0.7940772771835327,0.28138723969459534,-68.3499984741211,-4.037499904632568,-86.0625,,,,Backward
1761152766.3494477,-2.801755666732788,1.4780727624893188,1.243496060371399,-6.6416707038879395,-5.983041763305664,4.040733337402344,0.0061025177128612995,0.5113552808761597,2.5380473136901855,-0.49695518612861633,-0.21699270606040955,0.7971357703208923,0.2655639946460724,-67.04375457763672,-4.268750190734863,-86.33125305175781,,,,Backward
1761152766.378448,-1.7964268922805786,1.8227568864822388,0.6654319763183594,-6.735373020172119,-5.9053239822387695,3.9997501373291016,-0.15883110463619232,0.434386283159256,1.1110661029815674,-0.5010330080986023,-0.2123795747756958,0.7966635227203369,0.2630362808704376,-66.70625305175781,-4.293750286102295,-86.55000305175781,,,,Backward
1761152766.3929117,-0.9179610013961792,2.3254213333129883,0.12446928769350052,-6.617944717407227,-6.036212921142578,4.000381946563721,0.2834353446960449,0.28533515334129333,-0.4319794774055481,-0.49954330921173096,-0.21578563749790192,0.7932496666908264,0.27321794629096985,-67.32500457763672,-4.068749904632568,-86.51250457763672,,,,Backward
1761152766.4236553,0.36143964529037476,3.4061498641967773,0.9131736755371094,-6.3076171875,-6.374777793884277,3.976468086242676,-0.10263149440288544,0.0544280931353569,-1.827195644378662,-0.4941476285457611,-0.23052962124347687,0.7862250208854675,0.2907310128211975,-67.6187515258789,-4.099999904632568,-85.92500305175781,,,,Backward
1761152766.438379,2.031003713607788,2.5288808345794678,1.487647294998169,-5.791966915130615,-6.87217903137207,3.9322242736816406,-0.6108713746070862,-0.24123068153858185,-2.915757656097412,-0.4839209020137787,-0.25573691725730896,0.7758587598800659,0.3137872815132141,-69.1624984741211,-3.8187501430511475,-86.5999984741211,,,,Backward
1761152766.4676638,3.863335132598877,-0.37340787053108215,1.8706297874450684,-5.0624237060546875,-7.421624183654785,3.940493106842041,-0.8222307562828064,-0.6126367449760437,-3.9273502826690674,-0.46684882044792175,-0.28497642278671265,0.7629897594451904,0.34451019763946533,-71.4437484741211,-2.7750000953674316,-86.30000305175781,,,,Backward
1761152766.4830842,5.575984477996826,-2.3373894691467285,1.132191777229309,-4.155592918395996,-7.913804054260254,4.042136192321777,-0.20770031213760376,-0.8508741855621338,-4.777674674987793,-0.4430220127105713,-0.3125864565372467,0.7480701804161072,0.3826385736465454,-74.66875457763672,-2.168750047683716,-87.28125,,,,Backward
1761152766.5106332,7.432252407073975,-3.230217218399048,0.11250108480453491,-3.1612205505371094,-8.351144790649414,4.062165260314941,0.24311822652816772,-0.9021868705749512,-5.210167407989502,-0.41834381222724915,-0.3434332609176636,0.7290636897087097,0.4189370572566986,-80.9625015258789,-1.28125,-88.46875,,,,Backward
1761152766.5287554,10.797710418701172,-5.845269203186035,0.9933606386184692,-2.0918478965759277,-8.836628913879395,3.711371421813965,-1.4746348857879639,-1.0561249256134033,-5.262701988220215,-0.3997578024864197,-0.38862714171409607,0.7002207040786743,0.4459301233291626,-84.9937515258789,-1.118749976158142,-86.5374984741211,,,,Backward
1761152766.5426004,12.2925386428833,-10.169380187988281,3.5162572860717773,-1.013932228088379,-9.123226165771484,3.460460662841797,-2.4251410961151123,-0.9803776144981384,-5.274919033050537,-0.3764001727104187,-0.4265545606613159,0.6729933023452759,0.4727092981338501,-90.625,0.1875,-84.6624984741211,,,,Backward
1761152766.5723672,11.205825805664062,-18.579435348510742,3.324766159057617,0.06713724136352539,-9.104426383972168,3.652536392211914,-0.1796005219221115,-1.2577104568481445,-5.1002116203308105,-0.3385566771030426,-0.4463355839252472,0.6562603712081909,0.5054564476013184,-96.4124984741211,0.13125000894069672,-84.32500457763672,,,,Backward
1761152766.5873585,11.544526100158691,-18.790075302124023,2.3242244720458984,1.004833698272705,-8.926558494567871,3.942458152770996,1.821593999862671,-1.338344693183899,-4.6200714111328125,-0.29912593960762024,-0.45780226588249207,0.6452491879463196,0.5334738492965698,-100.7874984741211,-0.05625000223517418,-86.10625457763672,,,,Backward
1761152766.6031559,11.125638961791992,-15.473686218261719,2.6114614009857178,1.7805559635162354,-8.830674171447754,3.8839316368103027,1.093442678451538,-1.5497040748596191,-3.756308078765869,-0.2716638445854187,-0.47774574160575867,0.6302836537361145,0.5483614802360535,-106.98750305175781,0.1875,-86.86250305175781,,,,Backward
1761152766.6339066,10.92218017578125,-16.998435974121094,2.988459587097168,2.4001619815826416,-8.789083480834961,3.6369400024414062,-0.9334082007408142,-1.5093868970870972,-2.9304182529449463,-0.2537444531917572,-0.500244677066803,0.6135796904563904,0.5557777285575867,-109.60625457763672,0.13750000298023224,-85.13750457763672,,,,Backward
1761152766.6615067,8.843303680419922,-20.491952896118164,4.564671516418457,2.896181106567383,-8.676405906677246,3.545168399810791,-0.5888802409172058,-1.36644446849823,-2.32321834564209,-0.23394867777824402,-0.5143699645996094,0.604218065738678,0.5617935657501221,-112.21875,0.32500001788139343,-85.0,,,,Backward
1761152766.6781704,6.952327728271484,-20.755252838134766,4.768131256103516,3.251763105392456,-8.57248592376709,3.489218235015869,0.5204510688781738,-1.318796992301941,-1.8113131523132324,-0.21720914542675018,-0.5243856906890869,0.5994473695755005,0.5643605589866638,-114.5250015258789,0.18125000596046448,-84.8375015258789,,,,Backward
1761152766.7065234,5.4024457931518555,-18.727840423583984,4.522782802581787,3.454676866531372,-8.615376472473145,3.174372673034668,-0.4520464241504669,-1.1355373859405518,-1.1405831575393677,-0.21533232927322388,-0.5402215123176575,0.5892898440361023,0.5608301162719727,-115.45625305175781,0.02500000037252903,-83.75,,,,Backward
1761152766.7213755,2.962129592895508,-20.167613983154297,6.209102630615234,3.503227472305298,-8.730903625488281,2.781156539916992,-2.052513360977173,-0.6896057724952698,-0.49428772926330566,-0.22307376563549042,-0.5554160475730896,0.5787304639816284,0.5539153218269348,-117.4437484741211,0.768750011920929,-81.67500305175781,,,,Backward
1761152766.7377949,0.2896304428577423,-23.482807159423828,8.911521911621094,3.4104678630828857,-8.820323944091797,2.608963966369629,-1.4550871849060059,-0.4721377491950989,0.08236906677484512,-0.2291921228170395,-0.5607996582984924,0.5783587098121643,0.5463294386863708,-117.5687484741211,0.625,-80.01250457763672,,,,Backward
1761152766.7527933,-2.174622058868408,-22.58040428161621,8.929474830627441,3.1581876277923584,-8.936223983764648,2.530982494354248,-0.28955626487731934,-0.2778826057910919,0.9424673318862915,-0.23889373242855072,-0.5602942705154419,0.584205687046051,0.5363803505897522,-115.98750305175781,0.9437500238418579,-80.0625,,,,Backward
1761152766.7825122,-4.6101508140563965,-18.7793025970459,9.307669639587402,2.7656829357147217,-9.100467681884766,2.4017887115478516,-0.6658492684364319,0.04098905622959137,1.5728802680969238,-0.2563127875328064,-0.5584697127342224,0.5903524160385132,0.5233538746833801,-113.8187484741211,0.981249988079071,-79.3062515258789,,,,Backward
1761152766.7975428,-7.5291948318481445,-17.850570678710938,9.489585876464844,2.130750894546509,-9.27730941772461,2.3722448348999023,-0.7990178465843201,0.3464216887950897,2.4012136459350586,-0.27971914410591125,-0.5484958291053772,0.6040200591087341,0.5060328841209412,-111.0562515258789,1.15625,-79.1187515258789,,,,Backward
1761152766.8123932,-8.742770195007324,-17.48554039001465,10.031745910644531,1.236480951309204,-9.382601737976074,2.583408832550049,0.40805184841156006,0.5944329500198364,3.770773410797119,-0.30352726578712463,-0.5255463719367981,0.6304060220718384,0.4840046167373657,-104.91875457763672,1.087499976158142,-80.16875457763672,,,,Backward
1761152766.8420267,-7.348474979400635,-12.566610336303711,7.805660247802734,0.19308948516845703,-9.36005973815918,2.930549144744873,1.3842145204544067,0.543120265007019,4.7518229484558105,-0.3264966905117035,-0.49399852752685547,0.6629616618156433,0.4580909311771393,-99.45000457763672,0.625,-81.95625305175781,,,,Backward
1761152766.8581133,-5.716012477874756,-8.201807975769043,5.444334506988525,-0.9249253273010254,-9.192686080932617,3.297745704650879,1.7653944492340088,0.5761070251464844,5.257619380950928,-0.34946706891059875,-0.4580305218696594,0.696189284324646,0.4282536804676056,-94.01875305175781,0.32500001788139343,-83.79375457763672,,,,Backward
1761152766.8887088,-3.586869716644287,-5.9661478996276855,3.7508339881896973,-2.084718942642212,-8.861259460449219,3.6562461853027344,1.9254411458969116,0.5333464741706848,5.635134220123291,-0.3725014925003052,-0.4181980788707733,0.7283883094787598,0.39471957087516785,-89.13750457763672,-0.04374999925494194,-85.9124984741211,,,,Backward
1761152766.9032326,-2.0429718494415283,-3.540193796157837,2.670105457305908,-3.2166144847869873,-8.363330841064453,3.9930195808410645,2.0072970390319824,0.6738454699516296,5.87214994430542,-0.3948788046836853,-0.3749038875102997,0.7573719620704651,0.3604242503643036,-84.32500457763672,-0.24375000596046448,-87.5062484741211,,,,Backward
1761152766.9306679,-1.8323315382003784,-0.6606446504592896,1.628872036933899,-4.2411065101623535,-7.777227878570557,4.214718341827393,1.96697998046875,0.8888700008392334,5.697442531585693,-0.4169628620147705,-0.3336533010005951,0.7798144221305847,0.32666024565696716,-78.8125,-1.8625000715255737,-89.4625015258789,,,,Backward
1761152766.9476125,-3.2254300117492676,0.5325849056243896,1.4649077653884888,-5.067527770996094,-7.2128400802612305,4.304791450500488,1.357336401939392,0.9475131034851074,5.1146769523620605,-0.43630149960517883,-0.30038753151893616,0.7951772809028625,0.2951296865940094,-75.13750457763672,-2.5562500953674316,-88.9937515258789,,,,Backward
1761152766.963264,-4.1481781005859375,0.4476107060909271,1.5570628643035889,-5.665778160095215,-6.722630500793457,4.352161884307861,0.7819013595581055,0.686062753200531,4.083536624908447,-0.45041966438293457,-0.27440738677978516,0.8055784702301025,0.2699371874332428,-73.3499984741211,-3.262500047683716,-89.7249984741211,,,,Backward
1761152766.99277,-4.374377250671387,0.1005328819155693,1.5247488021850586,-6.056100845336914,-6.332282066345215,4.411571025848389,0.8662008047103882,0.5309029817581177,2.99741792678833,-0.4591614305973053,-0.25361400842666626,0.8125851154327393,0.25407907366752625,-71.55000305175781,-3.625,-89.2562484741211,,,,Backward
1761152767.0074048,-3.965064764022827,0.1890975683927536,1.7054685354232788,-6.251192569732666,-6.091937065124512,4.477388381958008,0.7586885094642639,0.3781866729259491,1.708492398262024,-0.4631493389606476,-0.23934780061244965,0.8163593411445618,0.24852128326892853,-70.71875,-3.9625000953674316,-89.7750015258789,,,,Backward
1761152767.0224156,-3.182344436645508,0.45957890152931213,1.353603482246399,-6.267619609832764,-6.032070159912109,4.535106658935547,0.7977838516235352,0.27433958649635315,0.4733228385448456,-0.4631117284297943,-0.23319607973098755,0.8169384002685547,0.2525051534175873,-71.1500015258789,-4.106250286102295,-90.7750015258789,,,,Backward
1761152767.0523126,-1.7401763200759888,0.9311259984970093,1.1764740943908691,-6.083250045776367,-6.193946838378906,4.567845344543457,0.3860607147216797,0.06542366743087769,-0.8094941973686218,-0.45843854546546936,-0.23878510296344757,0.8141343593597412,0.2645772099494934,-71.2437515258789,-4.356250286102295,-90.55000305175781,,,,Backward
1761152767.067707,0.7982789874076843,0.5493404269218445,0.9466846585273743,-5.705690860748291,-6.573484420776367,4.524433612823486,-0.30910393595695496,-0.2326785773038864,-2.038555145263672,-0.4506085515022278,-0.2575826048851013,0.8067722320556641,0.2823503613471985,-72.0,-3.7562501430511475,-90.6624984741211,,,,Backward
1761152767.0987473,3.1248972415924072,0.23936401307582855,0.9107800722122192,-5.151984214782715,-7.087482929229736,4.411435604095459,-1.0274814367294312,-0.36706891655921936,-3.0367088317871094,-0.43997079133987427,-0.2856254577636719,0.7948572039604187,0.3050343096256256,-73.8687515258789,-2.8687500953674316,-90.65625,,,,Backward
1761152767.113855,5.097256660461426,-0.7887043952941895,0.7121079564094543,-4.411985397338867,-7.635717391967773,4.297245979309082,-1.3170316219329834,-0.5601023435592651,-3.92002010345459,-0.42424240708351135,-0.3177965581417084,0.7797110676765442,0.33327823877334595,-76.3125,-2.6500000953674316,-90.53125,,,,Backward
1761152767.127816,7.5435566902160645,-2.865187168121338,1.4409713745117188,-3.492400646209717,-8.111194610595703,4.271742343902588,-0.9786122441291809,-0.7934528589248657,-4.62984561920166,-0.40123501420021057,-0.3482622504234314,0.7630731463432312,0.36802616715431213,-81.60625457763672,-1.8625000715255737,-90.91875457763672,,,,Backward
1761152767.1579316,10.3656587600708,-5.142735958099365,1.8347251415252686,-2.4368104934692383,-8.486030578613281,4.276137828826904,-0.20281340181827545,-0.9730472564697266,-5.217497825622559,-0.3729567527770996,-0.3780944049358368,0.7440273761749268,0.40542712807655334,-85.60625457763672,-1.2000000476837158,-90.9000015258789,,,,Backward
1761152767.1726723,12.118999481201172,-5.266008377075195,1.201607346534729,-1.2890632152557373,-8.828136444091797,4.079025745391846,-0.941960334777832,-1.2149498462677002,-5.537590980529785,-0.34524235129356384,-0.41582003235816956,0.7181946039199829,0.43828991055488586,-90.41875457763672,-0.5250000357627869,-90.2750015258789,,,,Backward
1761152767.2037604,13.28709602355957,-7.428662300109863,1.7006813287734985,-0.15405607223510742,-9.045967102050781,3.792473316192627,-1.6884377002716064,-1.3908790349960327,-5.377544403076172,-0.3171243369579315,-0.4540218710899353,0.6906362175941467,0.465099960565567,-96.2750015258789,0.08749999850988388,-88.6875,,,,Backward
1761152767.2182736,15.143363952636719,-16.270769119262695,3.524635076522827,0.9316520690917969,-8.97451400756836,3.8504843711853027,-0.8967562913894653,-1.5057216882705688,-5.1612982749938965,-0.27924415469169617,-0.47515225410461426,0.6718838214874268,0.49479812383651733,-102.23750305175781,0.03125,-87.4937515258789,,,,Backward
1761152767.2332118,14.463570594787598,-20.494346618652344,3.7412595748901367,1.836052417755127,-8.708990097045898,4.125349521636963,1.64199960231781,-1.5325998067855835,-4.521111488342285,-0.23758889734745026,-0.4830000698566437,0.6632275581359863,0.5199919939041138,-109.10625457763672,0.03750000149011612,-88.83125305175781,,,,Backward
1761152767.262934,12.227910041809082,-14.510246276855469,2.285926342010498,2.547056198120117,-8.574451446533203,4.02832555770874,1.3182411193847656,-1.7158594131469727,-3.471644878387451,-0.20957355201244354,-0.5007610321044922,0.6503229141235352,0.5314108729362488,-112.4124984741211,-0.3499999940395355,-89.34375,,,,Backward
1761152767.2917683,12.918476104736328,-15.458127975463867,2.5923123359680176,3.0804169178009033,-8.605449676513672,3.5627784729003906,-1.5662646293640137,-1.7635068893432617,-2.4234001636505127,-0.19796665012836456,-0.5284128189086914,0.6302657127380371,0.533248782157898,-115.78125,0.05000000074505806,-87.35625457763672,,,,Backward
1761152767.2947922,11.105293273925781,-20.62599754333496,4.732226371765137,3.4876348972320557,-8.58119010925293,3.230433464050293,-1.8191628456115723,-1.3359012603759766,-1.9029430150985718,-0.18737022578716278,-0.5479437708854675,0.6153187155723572,0.5348204970359802,-117.89375305175781,0.25,-85.05000305175781,,,,Backward
1761152767.321774,8.724818229675293,-22.543302536010742,6.4975361824035645,3.7572665214538574,-8.537166595458984,3.0390539169311523,-0.770918071269989,-1.1257635354995728,-1.504658818244934,-0.1782713234424591,-0.5597531795501709,0.6068418025970459,0.5353865623474121,-120.30000305175781,0.21250000596046448,-84.5999984741211,,,,Backward
1761152767.3497741,7.470551013946533,-21.67919921875,5.552048206329346,3.8488121032714844,-8.565685272216797,2.8375682830810547,-0.5436761975288391,-0.6309627294540405,-0.8253766894340515,-0.17989228665828705,-0.568341851234436,0.598910927772522,0.5347261428833008,-122.0,0.42500001192092896,-83.14375305175781,,,,Backward
1761152767.3670573,3.7089452743530273,-23.504348754882812,7.034908294677734,3.801858901977539,-8.654342651367188,2.6238017082214355,-1.3695659637451172,0.15216653048992157,-0.26215893030166626,-0.19104091823101044,-0.5742581486701965,0.5905091166496277,0.5338819622993469,-121.61250305175781,0.3187499940395355,-81.38750457763672,,,,Backward
1761152767.3811967,-0.3722110390663147,-27.53284454345703,8.315505981445312,3.5251007080078125,-8.814291954040527,2.4734678268432617,-1.235175609588623,0.5883243083953857,0.37314093112945557,-0.21060816943645477,-0.5740866661071777,0.5885276794433594,0.5288704037666321,-121.0625,0.6312500238418579,-79.45000457763672,,,,Backward
1761152767.4117932,-2.2153139114379883,-27.52446746826172,9.397431373596191,2.913235902786255,-9.060691833496094,2.3776063919067383,-1.0922331809997559,1.1295509338378906,2.0627942085266113,-0.24245280027389526,-0.5657153725624084,0.5946200489997864,0.5173100829124451,-118.54375457763672,1.0,-78.5062484741211,,,,Backward
1761152767.4272437,-4.653236389160156,-22.065771102905273,10.292652130126953,2.0223944187164307,-9.290901184082031,2.413543701171875,-0.8539957404136658,1.7746245861053467,3.416471481323242,-0.28152111172676086,-0.5456476807594299,0.6084280610084534,0.5028218030929565,-110.95000457763672,1.2062500715255737,-78.46875,,,,Backward
1761152767.4553647,-7.904996395111084,-17.443653106689453,10.128687858581543,0.8754568099975586,-9.407448768615723,2.6399998664855957,0.11239307373762131,2.3268468379974365,4.58811092376709,-0.3218940496444702,-0.5116909742355347,0.6320644617080688,0.48482075333595276,-104.2750015258789,1.118749976158142,-79.375,,,,Backward
1761152767.4723082,-9.008464813232422,-12.88137435913086,8.181462287902832,-0.41949987411499023,-9.335590362548828,2.984440326690674,1.4000970125198364,2.1851260662078857,5.574047565460205,-0.35737118124961853,-0.4692266881465912,0.6637441515922546,0.45995205640792847,-96.78125,0.3187499940395355,-81.01875305175781,,,,Backward
1761152767.4864125,-5.236087799072266,-8.466304779052734,5.397658348083496,-1.7864799499511719,-9.063509941101074,3.3011183738708496,1.7947160005569458,1.6157996654510498,6.195908546447754,-0.3912425637245178,-0.42270147800445557,0.6959883570671082,0.428780734539032,-90.2562484741211,0.40625,-82.9000015258789,,,,Backward
1761152767.5168905,-2.113584280014038,-3.140455722808838,2.8891236782073975,-3.236687660217285,-8.591525077819824,3.456251621246338,1.633447527885437,1.797837495803833,6.712700366973877,-0.4290847182273865,-0.3738003373146057,0.7240336537361145,0.38978832960128784,-83.4625015258789,-0.3812499940395355,-84.09375,,,,Backward
1761152767.5329149,-1.2961561679840088,2.209329843521118,1.177670955657959,-4.656622886657715,-7.945258617401123,3.380065441131592,0.8820832967758179,2.0055317878723145,7.284470081329346,-0.46975764632225037,-0.32718685269355774,0.7444971799850464,0.34351202845573425,-74.4124984741211,-1.662500023841858,-84.09375,,,,Backward
1761152767.5599434,-2.4678430557250977,4.799248218536377,0.3111732006072998,-5.883508205413818,-7.208073616027832,3.1087169647216797,0.03664578124880791,2.056844472885132,7.101210594177246,-0.5081364512443542,-0.2887057662010193,0.7566666007041931,0.29309046268463135,-69.73750305175781,-2.512500047683716,-83.80000305175781,,,,Backward
1761152767.5779538,-4.855498790740967,4.202035427093506,0.8425613045692444,-6.803999900817871,-6.46506404876709,2.853883743286133,-0.8271176815032959,1.5669304132461548,6.381611347198486,-0.5365201234817505,-0.2582406997680664,0.7647981643676758,0.24605213105678558,-65.96875,-3.2562501430511475,-81.9937515258789,,,,Backward
1761152767.6055129,-5.803380489349365,0.08736786246299744,1.7928364276885986,-7.395834922790527,-5.78658390045166,2.837813377380371,-0.3017735779285431,0.7483710050582886,5.0059428215026855,-0.550495982170105,-0.22872555255889893,0.7737768888473511,0.214261993765831,-63.96875,-3.924999952316284,-80.7125015258789,,,,Backward
1761152767.6224434,-4.928504943847656,-1.4230190515518188,1.267432451248169,-7.730410575866699,-5.23056697845459,3.0196051597595215,1.233941674232483,0.2059226781129837,3.401810884475708,-0.5544553399085999,-0.19665919244289398,0.7826947569847107,0.20320755243301392,-63.21875,-4.506249904632568,-81.20625305175781,,,,Backward
1761152767.6645377,-4.355227947235107,1.7222241163253784,0.35904601216316223,-7.88090181350708,-4.863458633422852,3.2363948822021484,2.377481460571289,0.20470094680786133,1.8172264099121094,-0.5537440180778503,-0.16856364905834198,0.7885786294937134,0.20759953558444977,-62.587501525878906,-5.075000286102295,-82.03125,,,,Backward
1761152767.6675127,-4.715470790863037,3.4241020679473877,0.25731632113456726,-7.864569187164307,-4.763784885406494,3.4192123413085938,2.3041775226593018,0.19492709636688232,0.3670322597026825,-0.5497016906738281,-0.15348055958747864,0.7908751368522644,0.22088074684143066,-62.625,-5.456250190734863,-82.89375305175781,,,,Backward
1761152767.6825037,-3.973442554473877,3.0327420234680176,0.24295447766780853,-7.679045677185059,-4.963220119476318,3.5545501708984375,1.3939883708953857,-0.1581530123949051,-1.0917139053344727,-0.5425717234611511,-0.15635274350643158,0.7901023626327515,0.23855409026145935,-62.72500228881836,-5.375,-83.5374984741211,,,,Backward
1761152767.6975076,-1.9520134925842285,2.5444395542144775,0.2537258565425873,-7.324678897857666,-5.428345680236816,3.6219120025634766,0.1783665120601654,-0.48924198746681213,-2.3916351795196533,-0.5332610607147217,-0.17615213990211487,0.7857323288917542,0.25928324460983276,-63.72500228881836,-4.931250095367432,-84.3125,,,,Backward
1761152767.7281046,0.23098626732826233,1.5067964792251587,0.003590460168197751,-6.792058944702148,-6.077977180480957,3.6279797554016113,-0.810013473033905,-0.7885659337043762,-3.4386582374572754,-0.5209980010986328,-0.208922877907753,0.7778165340423584,0.2826903164386749,-65.10625457763672,-4.474999904632568,-84.8125,,,,Backward
1761152767.7414954,2.492976188659668,-0.14122477173805237,0.26449722051620483,-6.096453666687012,-6.79727840423584,3.5869736671447754,-1.3268054723739624,-1.014586091041565,-4.179027080535889,-0.5056564807891846,-0.24797022342681885,0.766224205493927,0.3093910217285156,-68.4375,-3.237499952316284,-85.01250457763672,,,,Backward
1761152767.7567616,5.4574995040893555,-2.0633177757263184,1.1034680604934692,-5.248015880584717,-7.508130073547363,3.5103302001953125,-1.4123265743255615,-1.0353554487228394,-4.788670539855957,-0.48761022090911865,-0.2886526882648468,0.7502342462539673,0.3406824469566345,-71.58125305175781,-2.6812500953674316,-85.1624984741211,,,,Backward
1761152767.786746,8.648221969604492,-3.379819869995117,1.2099850177764893,-4.259199142456055,-8.158174514770508,3.3969860076904297,-1.2425060272216797,-0.8801957368850708,-5.32134485244751,-0.4671967625617981,-0.3295273184776306,0.7294893264770508,0.3754786550998688,-75.4437484741211,-2.018749952316284,-85.8812484741211,,,,Backward
1761152767.8027515,11.238140106201172,-5.2707953453063965,1.146553635597229,-3.149383544921875,-8.685684204101562,3.2979373931884766,-1.0555813312530518,-0.7641313076019287,-5.68419885635376,-0.4429461658000946,-0.36838582158088684,0.7055659294128418,0.4126345217227936,-80.3187484741211,-0.7250000238418579,-84.8125,,,,Backward
1761152767.832902,13.2069091796875,-9.423761367797852,2.2631866931915283,-1.893305778503418,-9.005499839782715,3.398892879486084,-0.6841751933097839,-0.8374351859092712,-6.081261157989502,-0.4093117415904999,-0.3990335464477539,0.6813875436782837,0.4571073353290558,-85.51250457763672,-0.23749999701976776,-84.73125457763672,,,,Backward
1761152767.8622146,13.1733980178833,-11.4116792678833,3.6862058639526367,-0.6087970733642578,-8.956106185913086,3.956467628479004,1.7556205987930298,-0.8374351859092712,-6.405019760131836,-0.3602166771888733,-0.4105960726737976,0.6656904816627502,0.5084398984909058,-93.6624984741211,-0.10000000149011612,-87.36250305175781,,,,Backward
1761152767.8766797,13.034566879272461,-10.572708129882812,1.9544070959091187,0.6399123668670654,-8.70801067352295,4.471818923950195,3.3145487308502197,-1.365222692489624,-5.995739936828613,-0.30778512358665466,-0.42112571001052856,0.650073766708374,0.5525627136230469,-99.39375305175781,-0.125,-90.15625,,,,Backward
1761152767.906682,13.7239351272583,-6.601659297943115,1.2901719808578491,1.7633051872253418,-8.504878997802734,4.560035705566406,2.034175157546997,-1.6181209087371826,-5.533926010131836,-0.26771244406700134,-0.44261986017227173,0.627122163772583,0.5823535323143005,-104.1312484741211,-0.13750000298023224,-91.4437484741211,,,,Backward
1761152767.910683,15.229535102844238,-10.649304389953613,3.0937798023223877,2.7352421283721924,-8.349748611450195,4.363055229187012,-0.46059852838516235,-1.7341853380203247,-4.838761329650879,-0.2394484281539917,-0.46934691071510315,0.5992311835289001,0.6027436852455139,-108.96875,0.15625,-90.0374984741211,,,,Backward
1761152767.937717,15.324084281921387,-17.25575065612793,4.7142744064331055,3.513066291809082,-8.098831176757812,4.278250217437744,-0.40439891815185547,-1.2845885753631592,-4.172918319702148,-0.21248535811901093,-0.48661524057388306,0.5774916410446167,0.6201282739639282,-113.2874984741211,0.08749999850988388,-89.0374984741211,,,,Backward
1761152767.9526794,13.72752571105957,-16.969711303710938,4.073975563049316,4.130322456359863,-7.9130096435546875,4.069500923156738,0.06352385133504868,-1.1660807132720947,-3.250511646270752,-0.1936875879764557,-0.5050437450408936,0.5568197965621948,0.63037109375,-117.98125457763672,-0.0625,-88.4625015258789,,,,Backward
1761152767.982354,13.137494087219238,-14.85971736907959,3.869319200515747,4.614579200744629,-7.874973297119141,3.5953545570373535,-1.4489785432815552,-1.158750295639038,-2.6103248596191406,-0.18913191556930542,-0.5300751328468323,0.5312552452087402,0.6332593560218811,-120.26875305175781,0.17499999701976776,-86.38750457763672,,,,Backward
1761152767.996753,12.65278148651123,-19.843276977539062,4.680763244628906,4.9496355056762695,-7.867651462554932,3.136446952819824,-2.5375404357910156,-0.9376170635223389,-2.010455369949341,-0.1906004250049591,-0.5511912703514099,0.5084514617919922,0.6335116028785706,-122.51875305175781,0.3375000059604645,-83.71875,,,,Backward
1761152768.0127478,10.56074047088623,-24.37922477722168,6.6626973152160645,5.1132378578186035,-7.878241539001465,2.832705020904541,-1.637125015258789,-0.5527719855308533,-1.400811791419983,-0.19351129233837128,-0.5640699863433838,0.4950930178165436,0.6318712830543518,-124.1875,0.34375,-81.7125015258789,,,,Backward
1761152768.0413442,8.243696212768555,-23.647968292236328,6.411365032196045,5.109752655029297,-7.993361473083496,2.4965410232543945,-1.6041382551193237,-0.4098294973373413,-0.40021446347236633,-0.2052730768918991,-0.5749941468238831,0.4850292205810547,0.6260921955108643,-125.01875305175781,0.5562500357627869,-80.23125457763672,,,,Backward
1761152768.0572526,5.187017917633057,-22.63067054748535,6.388625621795654,4.9936370849609375,-8.162593841552734,2.1614270210266113,-2.1099348068237305,-0.0872926414012909,0.2863980531692505,-0.22289949655532837,-0.5832249522209167,0.4768927991390228,0.6186580657958984,-124.91875457763672,0.625,-77.07500457763672,,,,Backward
1761152768.0719635,1.9316675662994385,-24.63654136657715,8.378936767578125,4.785457611083984,-8.319074630737305,2.031874656677246,-1.6053600311279297,0.14727960526943207,0.79463791847229,-0.23712579905986786,-0.5832751989364624,0.47794991731643677,0.612474799156189,-123.95000457763672,0.71875,-75.80000305175781,,,,Backward
1761152768.1019638,-0.3746046721935272,-23.935203552246094,8.203004837036133,4.398739337921143,-8.535261154174805,2.009108066558838,-0.4618202745914459,0.3574172556400299,1.3761816024780273,-0.25616106390953064,-0.5761774778366089,0.48597514629364014,0.6051687598228455,-122.15625,1.3000000715255737,-75.79375457763672,,,,Backward
1761152768.116765,-2.2069361209869385,-20.532644271850586,7.0887651443481445,3.7703447341918945,-8.87684154510498,1.7950782775878906,-1.020151138305664,0.9890519380569458,2.550264596939087,-0.29280415177345276,-0.5681315660476685,0.49148836731910706,0.5915500521659851,-119.53125,1.3625000715255737,-74.1875,,,,Backward
1761152768.1467633,-5.492207050323486,-18.654834747314453,6.556180477142334,2.905550241470337,-9.26248550415039,1.4142999649047852,-2.4813406467437744,1.581591248512268,3.566744327545166,-0.34269633889198303,-0.5572025179862976,0.49612998962402344,0.5709112286567688,-114.84375,1.7000000476837158,-71.5562515258789,,,,Backward
1761152768.1757586,-9.095832824707031,-17.856555938720703,6.999003887176514,1.7729651927947998,-9.580559730529785,1.1426191329956055,-2.502110242843628,1.671999216079712,4.820240020751953,-0.3926432132720947,-0.5362777709960938,0.5124614238739014,0.5437101721763611,-106.21875,1.875,-69.28125,,,,Backward
1761152768.1787596,-9.673896789550781,-15.41384506225586,6.020004749298096,0.4414076805114746,-9.734088897705078,1.135263442993164,-0.780691921710968,1.1307727098464966,5.933236598968506,-0.43292221426963806,-0.5046937465667725,0.5442975759506226,0.5114712715148926,-99.9124984741211,1.8250000476837158,-68.71875,,,,Backward
1761152768.2079124,-6.595675468444824,-11.38654613494873,3.9495062828063965,-1.0868401527404785,-9.656356811523438,1.3452377319335938,0.4300430119037628,0.36474764347076416,6.88862943649292,-0.46648022532463074,-0.4624192416667938,0.5874086618423462,0.4727745056152344,-92.78125,1.6125000715255737,-70.4749984741211,,,,Backward
1761152768.2218735,-2.307469129562378,-8.071354866027832,3.331947088241577,-2.6261816024780273,-9.249463081359863,1.9459457397460938,1.7177469730377197,-0.1276097446680069,7.7499494552612305,-0.4855891168117523,-0.40622836351394653,0.6399548053741455,0.43547624349594116,-84.8062515258789,0.831250011920929,-72.9312515258789,,,,Backward
1761152768.2638617,2.437922477722168,-5.494600772857666,0.8736786246299744,-4.0300703048706055,-8.493847846984863,2.801638126373291,4.085460662841797,-0.5307807922363281,7.846466541290283,-0.4946931004524231,-0.3353859484195709,0.6909410357475281,0.4066883325576782,-78.3187484741211,-0.08125000447034836,-77.17500305175781,,,,Backward
1761152768.267875,4.7202582359313965,-0.7623744010925293,-1.6157070398330688,-5.360538959503174,-7.420812129974365,3.525942325592041,5.230222225189209,0.8937569260597229,7.416417121887207,-0.5074833035469055,-0.2504976689815521,0.728713870048523,0.3856004476547241,-70.0374984741211,-2.2250001430511475,-82.51250457763672,,,,Backward
1761152768.281867,0.35186508297920227,3.2122650146484375,-1.359587550163269,-6.516609191894531,-6.227215766906738,3.8719115257263184,5.243660926818848,2.3549466133117676,7.152523517608643,-0.5233988165855408,-0.16943597793579102,0.7520769834518433,0.36293986439704895,-65.5,-3.799999952316284,-82.6187515258789,,,,Backward
1761152768.3118646,-5.2097578048706055,5.344998359680176,0.7001397609710693,-7.287542343139648,-5.267447471618652,3.921969413757324,3.351200580596924,2.169243574142456,5.87825870513916,-0.5358585119247437,-0.11383838206529617,0.7650654315948486,0.3384840488433838,-62.868751525878906,-4.84375,-82.40625,,,,Backward
1761152768.3270824,-6.185165882110596,5.299519062042236,0.9730147123336792,-7.735964775085449,-4.664432525634766,3.825446605682373,1.6774297952651978,1.3372451066970825,4.140957832336426,-0.5459083318710327,-0.08370906859636307,0.7709150910377502,0.31728050112724304,-61.375,-5.568749904632568,-81.2125015258789,,,,Backward
1761152768.3571637,-5.061352252960205,3.649104356765747,0.5230103731155396,-7.974210262298584,-4.41971492767334,3.6213550567626953,-0.06109265983104706,1.0330342054367065,2.341348648071289,-0.5566245317459106,-0.07479620724916458,0.7706401944160461,0.3011452257633209,-60.17499923706055,-5.987500190734863,-80.1624984741211,,,,Backward
1761152768.3721697,-4.794461250305176,3.3139946460723877,1.376343011856079,-8.029891014099121,-4.477834224700928,3.421395778656006,-0.9920513033866882,0.7532579302787781,0.795859694480896,-0.5647609233856201,-0.08162140101194382,0.7670620083808899,0.2932557165622711,-60.20000076293945,-6.137500286102295,-79.6500015258789,,,,Backward
1761152768.430004,-4.063204288482666,2.2224948406219482,1.6731544733047485,-7.89397668838501,-4.799107074737549,3.2999720573425293,-1.4147700071334839,0.23890939354896545,-0.7716205716133118,-0.5671255588531494,-0.10086780786514282,0.7620475888252258,0.2957664728164673,-60.57500076293945,-5.931250095367432,-79.30000305175781,,,,Backward
1761152768.4319925,-2.2009520530700684,0.7049270272254944,1.535520076751709,-7.566549301147461,-5.31718635559082,3.2727627754211426,-1.3866702318191528,-0.37806451320648193,-2.1521759033203125,-0.5626999139785767,-0.12869088351726532,0.7559722065925598,0.3087289333343506,-60.868751525878906,-5.237500190734863,-79.75,,,,Backward
1761152768.4353192,-0.15319296717643738,0.026330040767788887,0.7192888259887695,-7.037076473236084,-5.9788408279418945,3.311966896057129,-1.2156280279159546,-0.8349916934967041,-3.3140416145324707,-0.5518208742141724,-0.16336484253406525,0.7479090690612793,0.3308136761188507,-62.75,-4.231250286102295,-80.46875,,,,Backward
1761152768.4624262,2.175818920135498,-0.27287498116493225,0.4488075077533722,-6.318723678588867,-6.692208766937256,3.3947300910949707,-0.9932730197906494,-1.2735929489135742,-4.2596611976623535,-0.5349798202514648,-0.20192234218120575,0.737567663192749,0.3591906726360321,-64.48125457763672,-4.125,-81.3375015258789,,,,Backward
1761152768.4774232,5.5400800704956055,-1.604935646057129,0.38896653056144714,-5.4489970207214355,-7.384092807769775,3.466946601867676,-0.810013473033905,-1.4544090032577515,-4.872969627380371,-0.5144408941268921,-0.2421691119670868,0.7238447070121765,0.39083704352378845,-68.83125305175781,-2.6625001430511475,-82.78125,,,,Backward
1761152768.4924316,8.828941345214844,-3.9231760501861572,0.3877696990966797,-4.418428421020508,-8.04765510559082,3.456711769104004,-0.884539008140564,-1.5619213581085205,-5.281027793884277,-0.49121373891830444,-0.2872733771800995,0.7055038809776306,0.4224303066730499,-73.125,-1.462499976158142,-82.96875,,,,Backward
1761152768.5224411,11.36620044708252,-5.431169509887695,0.5888354778289795,-3.307079553604126,-8.565488815307617,3.454235553741455,-1.0531377792358398,-1.6083470582962036,-5.643881797790527,-0.4639473557472229,-0.32969075441360474,0.6857196688652039,0.45370182394981384,-78.1875,-0.925000011920929,-83.55000305175781,,,,Backward
1761152768.548574,13.45465087890625,-10.847976684570312,2.036987781524658,-2.140246629714966,-8.889068603515625,3.555264949798584,-0.6927273273468018,-1.9296622276306152,-5.417861461639404,-0.42946818470954895,-0.3665390908718109,0.6678714156150818,0.4849267303943634,-84.01875305175781,-0.45000001788139343,-83.6187515258789,,,,Backward
1761152768.5526984,14.28524398803711,-15.513181686401367,3.008805513381958,-1.004122018814087,-8.886615753173828,4.031862735748291,1.1142120361328125,-2.0567221641540527,-5.329896926879883,-0.38236361742019653,-0.38509801030158997,0.6587170362472534,0.5211425423622131,-89.17500305175781,-0.33125001192092896,-84.6624984741211,,,,Backward
1761152768.5825946,12.920868873596191,-16.525691986083984,2.1985583305358887,-0.025691986083984375,-8.693552017211914,4.54506254196167,3.042102813720703,-2.2570860385894775,-4.546767711639404,-0.334072470664978,-0.39590534567832947,0.6553556323051453,0.5496940016746521,-97.08125305175781,-0.4124999940395355,-88.38750457763672,,,,Backward
1761152768.5965817,12.729377746582031,-13.354118347167969,1.274613380432129,0.7457575798034668,-8.625898361206055,4.612358093261719,1.8081549406051636,-2.403693675994873,-3.428884267807007,-0.30246585607528687,-0.4164491593837738,0.6477324962615967,0.5617181658744812,-100.8499984741211,-0.15625,-89.38750457763672,,,,Backward
1761152768.6408522,12.99148178100586,-13.138690948486328,1.3069274425506592,1.336179494857788,-8.795804023742676,4.133347034454346,-1.1154460906982422,-2.1288042068481445,-2.3244400024414062,-0.2927670478820801,-0.45123982429504395,0.6302706599235535,0.5598472952842712,-104.5687484741211,-0.125,-88.5374984741211,,,,Backward
1761152768.6438518,10.26033878326416,-15.866243362426758,1.7760809659957886,1.8579647541046143,-8.999260902404785,3.43473482131958,-3.231483221054077,-1.8710191249847412,-1.9530339241027832,-0.2905062437057495,-0.4904520511627197,0.6076539158821106,0.5530097484588623,-107.21875,0.15000000596046448,-85.10625457763672,,,,Backward
1761152768.6708434,8.194626808166504,-18.805633544921875,2.7227656841278076,2.338402032852173,-9.115772247314453,2.769598960876465,-3.1984965801239014,-1.8539149761199951,-1.8540737628936768,-0.2861669063568115,-0.5262570381164551,0.5863396525382996,0.5453144907951355,-109.8812484741211,0.831250011920929,-82.4937515258789,,,,Backward
1761152768.6872997,7.478928565979004,-20.70618438720703,3.621577501296997,2.711873769760132,-9.165830612182617,2.206669330596924,-2.597405195236206,-1.8013805150985718,-1.6793663501739502,-0.28131359815597534,-0.555330753326416,0.569116473197937,0.5371934771537781,-114.61250305175781,0.8687500357627869,-78.3062515258789,,,,Backward
1761152768.7012525,5.5676069259643555,-21.733055114746094,5.390477657318115,2.9585816860198975,-9.187376022338867,1.753575325012207,-2.239438056945801,-1.5875777006149292,-1.2590910196304321,-0.27782976627349854,-0.577437162399292,0.5564689636230469,0.5288848876953125,-116.375,1.2000000476837158,-76.42500305175781,,,,Backward
1761152768.7322397,2.6330041885375977,-21.90180778503418,6.811102867126465,3.1159236431121826,-9.190865516662598,1.4335746765136719,-1.7311981916427612,-1.288253664970398,-0.849811315536499,-0.2747880816459656,-0.5928106904029846,0.5482320189476013,0.5220237374305725,-117.46875,1.3125,-75.70625305175781,,,,Backward
1761152768.7472372,0.06821874529123306,-22.203405380249023,7.697946548461914,3.152646064758301,-9.201217651367188,1.278487205505371,-0.864991307258606,-0.9962601065635681,-0.5419352054595947,-0.2729225754737854,-0.6002922654151917,0.5465608835220337,0.5161721110343933,-117.92500305175781,1.4375,-73.66875457763672,,,,Backward
1761152768.777232,-1.4852536916732788,-21.76417350769043,8.644631385803223,3.017582893371582,-9.253409385681152,1.2266693115234375,-0.3005518317222595,-0.5063462257385254,0.310832679271698,-0.27728235721588135,-0.6004940867424011,0.5498908162117004,0.5100406408309937,-117.76250457763672,1.662500023841858,-73.7562484741211,,,,Backward
1761152768.7914143,-3.740062713623047,-19.498592376708984,9.318441390991211,2.7088794708251953,-9.346753120422363,1.239466667175293,-0.21380896866321564,-0.054305918514728546,1.0255450010299683,-0.2884240448474884,-0.5946746468544006,0.5573714971542358,0.5025043487548828,-116.08125305175781,1.7312500476837158,-72.9124984741211,,,,Backward
1761152768.8059616,-5.854843616485596,-18.994731903076172,9.235860824584961,2.2110209465026855,-9.471319198608398,1.2812585830688477,0.046419624239206314,0.3232088088989258,1.9039692878723145,-0.30459168553352356,-0.5847394466400146,0.570400059223175,0.48984432220458984,-113.7562484741211,1.506250023841858,-73.5250015258789,,,,Backward
1761152768.8367329,-6.221070766448975,-18.030094146728516,9.215514183044434,1.503117322921753,-9.596177101135254,1.3748178482055664,0.260222464799881,0.19248363375663757,2.9509923458099365,-0.32568836212158203,-0.5690824389457703,0.5893728733062744,0.4719235301017761,-110.3812484741211,1.7687500715255737,-74.40625,,,,Backward
1761152768.8520966,-6.2964701652526855,-15.41384506225586,7.7984795570373535,0.5786333084106445,-9.670585632324219,1.543069839477539,0.6023070216178894,0.4673730134963989,3.9479243755340576,-0.35110700130462646,-0.54596346616745,0.6140881180763245,0.44893598556518555,-105.3687515258789,1.412500023841858,-74.4749984741211,,,,Backward
1761152768.8821838,-5.9876909255981445,-12.832304954528809,6.183969020843506,-0.48561811447143555,-9.64285659790039,1.7365493774414062,0.7037106156349182,0.36963456869125366,4.836122512817383,-0.3779699206352234,-0.5182948708534241,0.6417816281318665,0.4202684164047241,-100.29375457763672,1.3625000715255737,-74.58125305175781,,,,Backward
1761152768.8964863,-4.364802837371826,-10.137065887451172,4.941669940948486,-1.6227710247039795,-9.459464073181152,2.030092239379883,1.1410901546478271,0.28411343693733215,5.3516926765441895,-0.4030609726905823,-0.48380914330482483,0.6723281145095825,0.38916000723838806,-92.4437484741211,0.7250000238418579,-77.0875015258789,,,,Backward
1761152768.9112825,-2.6114614009857178,-8.062976837158203,3.2457759380340576,-2.757874011993408,-9.092693328857422,2.439908504486084,1.6896470785140991,0.2718961238861084,5.686446666717529,-0.42470625042915344,-0.44188955426216125,0.7040960788726807,0.3586180806159973,-87.08125305175781,0.8125,-79.5562515258789,,,,Backward
1761152768.9425013,-1.2782038450241089,-5.450318336486816,2.1303396224975586,-3.820474863052368,-8.55404281616211,2.9100584983825684,2.5888407230377197,0.40017783641815186,5.7621941566467285,-0.44326281547546387,-0.39395058155059814,0.7338242530822754,0.33139562606811523,-82.5562515258789,0.03125,-82.59375,,,,Backward
1761152768.957504,-1.105861783027649,-3.3020265102386475,0.9825892448425293,-4.806704998016357,-7.893718719482422,3.289513111114502,2.8197479248046875,0.7776925563812256,5.522735118865967,-0.4625796377658844,-0.34403321146965027,0.7574871778488159,0.30638933181762695,-77.3687515258789,-1.2375000715255737,-84.125,,,,Backward
1761152768.9874973,-2.2081329822540283,-1.7329953908920288,0.9526687860488892,-5.652315139770508,-7.1774797439575195,3.573686122894287,2.662144660949707,1.0977859497070312,5.01693868637085,-0.48005545139312744,-0.2956377863883972,0.7753552198410034,0.28455114364624023,-72.32500457763672,-2.28125,-85.36250305175781,,,,Backward
1761152769.0024974,-2.9860661029815674,-0.9083864092826843,1.6061325073242188,-6.319093704223633,-6.475830078125,3.790618896484375,2.5069849491119385,1.1857504844665527,4.276569843292236,-0.4942077100276947,-0.25011390447616577,0.7878949046134949,0.26911601424217224,-69.13750457763672,-3.2750000953674316,-86.23750305175781,,,,Backward
1761152769.0315948,-3.1919190883636475,-0.8365772366523743,1.256661057472229,-6.8240461349487305,-5.85802698135376,3.9181666374206543,2.6328229904174805,1.3274712562561035,3.3480546474456787,-0.5064743161201477,-0.20923925936222076,0.7946479320526123,0.2612228989601135,-67.7562484741211,-4.143750190734863,-85.4437484741211,,,,Backward
1761152769.0475981,-3.0973703861236572,0.33750325441360474,0.6869747042655945,-7.17968225479126,-5.419737815856934,3.9134035110473633,2.288295030593872,1.511952519416809,2.291257858276367,-0.5184210538864136,-0.1782686859369278,0.7950802445411682,0.2594367265701294,-65.1812515258789,-4.21875,-85.5875015258789,,,,Backward
1761152769.062625,-3.214658737182617,2.232069492340088,0.8102471828460693,-7.381462097167969,-5.220235824584961,3.807788848876953,1.5393742322921753,1.6329039335250854,1.1526049375534058,-0.5294092297554016,-0.16015298664569855,0.7903504371643066,0.26348254084587097,-64.8062515258789,-4.662499904632568,-84.08125305175781,,,,Backward
1761152769.0926156,-2.9585392475128174,2.429544687271118,1.1477503776550293,-7.402841091156006,-5.295198440551758,3.6599082946777344,0.7525798678398132,1.4142141342163086,-0.15220318734645844,-0.5372742414474487,-0.15746977925300598,0.7822955250740051,0.2730447053909302,-63.63750076293945,-4.862500190734863,-83.36250305175781,,,,Backward
1761152769.1075807,-1.604935646057129,1.1441600322723389,1.0699571371078491,-7.244093894958496,-5.610637664794922,3.5042762756347656,-0.12584437429904938,1.0024909973144531,-1.44601571559906,-0.5412465333938599,-0.16865603625774384,0.7718555927276611,0.2878302335739136,-63.59375,-4.537499904632568,-82.6937484741211,,,,Backward
1761152769.135572,-0.08138376474380493,0.6091814041137695,0.8317899107933044,-6.909209251403809,-6.096070766448975,3.367025852203369,-0.6304190754890442,0.554115891456604,-2.488151788711548,-0.5406003594398499,-0.19010350108146667,0.7595878839492798,0.30763325095176697,-64.1624984741211,-3.9750001430511475,-82.04375457763672,,,,Backward
1761152769.1522422,1.7653095722198486,0.040691882371902466,0.5732768177986145,-6.402054786682129,-6.683920860290527,3.251924991607666,-0.8955345749855042,0.15460999310016632,-3.339698076248169,-0.5351717472076416,-0.21873676776885986,0.7453739047050476,0.3319084644317627,-66.0062484741211,-3.606250047683716,-82.16875457763672,,,,Backward
1761152769.1669917,3.856154203414917,-1.7042717933654785,0.8880404829978943,-5.727346420288086,-7.292108535766602,3.2029318809509277,-0.8674347996711731,-0.20091357827186584,-4.062962532043457,-0.523560643196106,-0.2502717077732086,0.7300698757171631,0.3608965575695038,-67.375,-2.918750047683716,-81.36250305175781,,,,Backward
1761152769.1970108,6.435301303863525,-5.288747787475586,0.16037388145923615,-4.909505844116211,-7.905252933502197,3.1048083305358887,-0.7440400123596191,-0.6480669379234314,-4.5052289962768555,-0.5086318850517273,-0.2881779074668884,0.7121720910072327,0.38866186141967773,-72.8687515258789,-1.625,-81.1312484741211,,,,Backward
1761152769.2119787,9.351951599121094,-8.803808212280273,1.2279373407363892,-3.9717297554016113,-8.487846374511719,2.901369094848633,-1.4807435274124146,-0.8007832765579224,-4.843648433685303,-0.492013156414032,-0.3317302167415619,0.6904143691062927,0.4137706756591797,-77.08125305175781,-1.337499976158142,-80.55000305175781,,,,Backward
1761152769.2269857,10.129884719848633,-11.402104377746582,1.518764615058899,-2.9721391201019287,-8.891203880310059,2.8894639015197754,-1.6041382551193237,-1.1416460275650024,-5.102654933929443,-0.467305988073349,-0.3665429949760437,0.6716107726097107,0.44295641779899597,-81.95000457763672,-0.04374999925494194,-80.0875015258789,,,,Backward
1761152769.256768,10.096373558044434,-16.668113708496094,3.0411198139190674,-1.9935288429260254,-9.058549880981445,3.194469451904297,0.8038925528526306,-1.1770762205123901,-4.7007060050964355,-0.43257108330726624,-0.3873825669288635,0.6607885360717773,0.4755791127681732,-87.6500015258789,0.10000000149011612,-80.17500305175781,,,,Backward
1761152769.2709117,9.465649604797363,-16.86798095703125,2.004673480987549,-1.044382095336914,-9.091724395751953,3.5335445404052734,1.4501879215240479,-1.6388903856277466,-4.4661335945129395,-0.39512181282043457,-0.4046969711780548,0.6519685387611389,0.5050112009048462,-91.21875,-0.1875,-81.8812484741211,,,,Backward
1761152769.3019154,8.518964767456055,-12.834698677062988,1.3643748760223389,-0.18324518203735352,-9.155241966247559,3.519101619720459,0.9761565327644348,-1.7256332635879517,-3.884589910507202,-0.3673107624053955,-0.430952250957489,0.6378706693649292,0.5219999551773071,-96.78125,0.4000000059604645,-83.8812484741211,,,,Backward
1761152769.317506,8.793037414550781,-12.675520896911621,1.9472262859344482,0.6178975105285645,-9.2412109375,3.2333173751831055,-1.0555813312530518,-1.688981294631958,-3.4863057136535645,-0.34769847989082336,-0.4629349410533905,0.6178247332572937,0.532061755657196,-100.8812484741211,0.5250000357627869,-82.7249984741211,,,,Backward
1761152769.3328216,7.742228984832764,-15.289376258850098,2.4056084156036377,1.4130971431732178,-9.258686065673828,2.9182229042053223,-1.6493422985076904,-1.6254513263702393,-3.423997402191162,-0.3276125490665436,-0.49389562010765076,0.5963448286056519,0.5413964986801147,-104.75,0.893750011920929,-81.5062484741211,,,,Backward
1761152769.3618217,7.664435863494873,-16.5771541595459,2.0070672035217285,2.131092071533203,-9.209303855895996,2.623598098754883,-1.0115989446640015,-1.5484822988510132,-3.300602674484253,-0.3073035180568695,-0.5213865637779236,0.5770224332809448,0.5484210848808289,-108.75,0.9375,-80.54375457763672,,,,Backward
1761152769.3771036,8.129998207092285,-19.887557983398438,1.311714768409729,2.7587203979492188,-9.158929824829102,2.17706298828125,-1.4966260194778442,-1.6278947591781616,-3.0147178173065186,-0.293804794549942,-0.5501975417137146,0.5540062189102173,0.5513969659805298,-112.20625305175781,1.2000000476837158,-78.6937484741211,,,,Backward
1761152769.4061177,6.116947174072266,-21.267492294311523,3.140455722808838,3.201566696166992,-9.138345718383789,1.5737590789794922,-2.273646593093872,-1.0988855361938477,-2.5516817569732666,-0.2922494411468506,-0.5782545208930969,0.5279875993728638,0.54903644323349,-115.91875457763672,1.306249976158142,-75.6312484741211,,,,Backward
1761152769.4219098,3.580885648727417,-23.37868309020996,4.501240253448486,3.4530341625213623,-9.129982948303223,0.9777975082397461,-3.0531105995178223,-0.8239961266517639,-1.7929872274398804,-0.29778599739074707,-0.6012376546859741,0.5050862431526184,0.5428855419158936,-118.05000305175781,1.5437500476837158,-71.55000305175781,,,,Backward
1761152769.4369066,0.7551934719085693,-26.8422794342041,6.405380725860596,3.5085482597351074,-9.138185501098633,0.6479034423828125,-2.480118989944458,-0.49901580810546875,-0.8388157486915588,-0.3029593527317047,-0.612529993057251,0.4949156641960144,0.5367318987846375,-118.83125305175781,1.9187500476837158,-69.86250305175781,,,,Backward
1761152769.4669068,-2.8005590438842773,-27.16901206970215,6.436498165130615,3.3071749210357666,-9.217636108398438,0.5778226852416992,-0.6059844493865967,-0.3658472001552582,0.2301984578371048,-0.3103485107421875,-0.6117459535598755,0.4996085464954376,0.5290009379386902,-119.30000305175781,2.137500047683716,-69.51875305175781,,,,Backward
1761152769.4943008,-5.226513385772705,-23.534269332885742,6.028382778167725,2.8102896213531494,-9.388199806213379,0.4473142623901367,-0.38118603825569153,-0.12638801336288452,1.7292617559432983,-0.33096611499786377,-0.6063518524169922,0.5086618661880493,0.5138696432113647,-116.86250305175781,2.09375,-68.03125,,,,Backward
1761152769.4980097,-7.136638164520264,-20.404584884643555,7.665632247924805,2.060821533203125,-9.583609580993652,0.3789043426513672,-0.9407386183738708,0.2926655411720276,3.147690773010254,-0.3589482605457306,-0.5931643843650818,0.5243216156959534,0.4943673610687256,-111.36250305175781,2.325000047683716,-67.2750015258789,,,,Backward
1761152769.5386996,-8.560853958129883,-19.371728897094727,9.554214477539062,1.120706558227539,-9.719253540039062,0.7184944152832031,0.4703601002693176,0.33420437574386597,4.149509906768799,-0.38008177280426025,-0.5647276639938354,0.5568682551383972,0.4759393334388733,-106.76875305175781,2.0375001430511475,-68.6812515258789,,,,Backward
1761152769.5427036,-6.787166595458984,-15.337248802185059,7.877469539642334,0.04011726379394531,-9.709611892700195,1.3992738723754883,2.629157781600952,0.06908886134624481,4.98517370223999,-0.3944118320941925,-0.5226093530654907,0.6014357209205627,0.4578143358230591,-101.0062484741211,1.712499976158142,-72.625,,,,Backward
1761152769.5877,-3.499501943588257,-9.739721298217773,3.3834102153778076,-1.1226811408996582,-9.538814544677734,1.9966773986816406,3.354865789413452,0.22547036409378052,5.393231391906738,-0.41376549005508423,-0.47647735476493835,0.6411556005477905,0.4366771876811981,-95.3499984741211,1.368749976158142,-75.98750305175781,,,,Backward
1761152769.5907016,-2.856809377670288,-4.618528366088867,1.9472262859344482,-2.2894325256347656,-9.22143840789795,2.44124698638916,2.6279361248016357,0.9010873436927795,5.611921310424805,-0.4369347393512726,-0.42972269654273987,0.6735188364982605,0.4132782518863678,-88.9937515258789,0.78125,-78.51875305175781,,,,Backward
1761152769.6170237,-3.3235692977905273,-2.6126582622528076,1.6432338953018188,-3.383617877960205,-8.787784576416016,2.749922752380371,2.184448003768921,1.0244821310043335,5.514183044433594,-0.4595147669315338,-0.3855995833873749,0.700188934803009,0.3871622383594513,-81.11250305175781,-0.03125,-81.73750305175781,,,,Backward
1761152769.6313345,-3.0399229526519775,-2.6808769702911377,1.2817943096160889,-4.358850479125977,-8.258816719055176,3.0047426223754883,1.759285807609558,0.9597303867340088,5.16843318939209,-0.4791354835033417,-0.34246498346328735,0.7225053906440735,0.36212271451950073,-77.1875,-0.65625,-82.1937484741211,,,,Backward
1761152769.646265,-3.2529568672180176,-2.4068050384521484,1.3404384851455688,-5.199552059173584,-7.643740653991699,3.282376289367676,2.028066396713257,0.9682825207710266,4.76770544052124,-0.49393343925476074,-0.2978796660900116,0.7422528862953186,0.3411130905151367,-73.48125457763672,-1.4812500476837158,-82.76875305175781,,,,Backward
1761152769.6769152,-3.5030922889709473,-1.5067964792251587,1.2506769895553589,-5.87585973739624,-7.014213562011719,3.5371155738830566,2.3371644020080566,0.9157480597496033,4.192270278930664,-0.504761815071106,-0.2548222839832306,0.75775146484375,0.32572051882743835,-70.6187515258789,-2.28125,-84.1875,,,,Backward
1761152769.692395,-3.787935495376587,-0.1400279402732849,0.36383330821990967,-6.3787078857421875,-6.465197563171387,3.7080202102661133,2.42146372795105,1.0208169221878052,3.3199548721313477,-0.513473391532898,-0.21760794520378113,0.7673206329345703,0.31656110286712646,-68.07500457763672,-2.643749952316284,-83.8125,,,,Backward
1761152769.7224333,-4.023708820343018,0.6091814041137695,0.33151915669441223,-6.703372001647949,-6.09304141998291,3.7650704383850098,1.7849421501159668,1.0232603549957275,2.279040575027466,-0.5206708312034607,-0.19235976040363312,0.771275520324707,0.3115023672580719,-66.2874984741211,-3.575000047683716,-84.75,,,,Backward
1761152769.7554986,-3.388197660446167,1.287778377532959,0.37699830532073975,-6.862293243408203,-5.904601573944092,3.7789855003356934,1.1679682731628418,0.847331166267395,1.156270146369934,-0.5252994298934937,-0.1773461550474167,0.7713323831558228,0.31249842047691345,-65.66875457763672,-3.793750047683716,-83.98125457763672,,,,Backward
1761152769.7554986,-2.287123203277588,1.2961561679840088,-0.21782125532627106,-6.864743232727051,-5.92570686340332,3.7413110733032227,0.702488899230957,0.6335283517837524,0.06159965321421623,-0.5280801057815552,-0.17447856068611145,0.7677181959152222,0.31827256083488464,-65.23750305175781,-3.856250047683716,-84.29375457763672,,,,Backward
1761152769.7829669,-1.018493890762329,1.0101161003112793,-0.07779330015182495,-6.6652021408081055,-6.1802978515625,3.6898674964904785,-0.04032324254512787,0.3635258972644806,-1.0623923540115356,-0.5267381072044373,-0.1856888085603714,0.7611644864082336,0.32968974113464355,-66.0,-4.025000095367432,-84.3125,,,,Backward
1761152769.7982602,1.3308639526367188,0.1651611626148224,0.5948195457458496,-6.247052192687988,-6.6372833251953125,3.6272449493408203,-0.7086098194122314,-0.24123068153858185,-2.3134443759918213,-0.5203505158424377,-0.2106192708015442,0.7518649101257324,0.3457947075366974,-66.65625,-3.356250047683716,-84.34375,,,,Backward
1761152769.8279016,4.685550689697266,-0.6091814041137695,0.4703502953052521,-5.660904884338379,-7.189693450927734,3.535335063934326,-1.1948585510253906,-0.6285192370414734,-3.239516019821167,-0.5105530023574829,-0.2431979924440384,0.7392762303352356,0.3655969798564911,-69.54375457763672,-2.3687500953674316,-84.51875305175781,,,,Backward
1761152769.8435552,7.151000022888184,-1.7581286430358887,-0.6223464012145996,-4.917750835418701,-7.779404640197754,3.3959836959838867,-1.4123265743255615,-0.8093353509902954,-3.8906984329223633,-0.4977581799030304,-0.2813342213630676,0.7228642702102661,0.38801437616348267,-72.5875015258789,-1.806249976158142,-84.1624984741211,,,,Backward
1761152769.8584445,8.905537605285645,-4.8100199699401855,-0.39255696535110474,-3.985825300216675,-8.334233283996582,3.2999777793884277,-1.4404263496398926,-0.9522778391838074,-4.565093517303467,-0.4781625270843506,-0.32119470834732056,0.7039582133293152,0.4154965877532959,-76.79375457763672,-1.037500023841858,-83.46875,,,,Backward
1761152769.8874216,11.629500389099121,-9.301685333251953,0.8629072308540344,-2.887244462966919,-8.743943214416504,3.3828063011169434,-0.8136786222457886,-1.318796992301941,-5.29935359954834,-0.4485107362270355,-0.3555585741996765,0.685204803943634,0.4504559636116028,-81.98750305175781,-0.28125,-84.01875305175781,,,,Backward
1761152769.9029093,14.489900588989258,-14.155987739562988,1.5450947284698486,-1.7803304195404053,-8.99172306060791,3.4950618743896484,0.5558812618255615,-1.4373048543930054,-5.392205238342285,-0.41537266969680786,-0.3864296078681946,0.6673332452774048,0.4824976921081543,-87.0999984741211,-0.581250011920929,-84.04375457763672,,,,Backward
1761152769.9340563,12.9866943359375,-14.629928588867188,1.8275442123413086,-0.6905965805053711,-9.237245559692383,3.2299375534057617,-0.7073881030082703,-1.8783495426177979,-5.012247085571289,-0.3887915015220642,-0.42920440435409546,0.6433319449424744,0.5007482767105103,-95.01250457763672,0.48125001788139343,-84.09375,,,,Backward
1761152769.9485323,12.071126937866211,-13.413959503173828,1.342832088470459,0.2895660400390625,-9.418924331665039,2.726931571960449,-2.469123363494873,-2.0469484329223633,-4.463690280914307,-0.36887556314468384,-0.47428205609321594,0.6156107187271118,0.5099127292633057,-100.3187484741211,0.7250000238418579,-81.42500305175781,,,,Backward
1761152769.963457,11.94665813446045,-18.979171752929688,3.470778226852417,1.202725887298584,-9.394540786743164,2.555812358856201,-2.083056688308716,-1.7109724283218384,-4.116718769073486,-0.3408072590827942,-0.5035719871520996,0.5956462621688843,0.5248536467552185,-105.01250457763672,1.1375000476837158,-80.6312484741211,,,,Backward
1761152769.9924488,7.724276542663574,-19.785829544067383,4.448580265045166,1.9955449104309082,-9.215169906616211,2.7082386016845703,0.8051142692565918,-1.8050457239151,-3.739203929901123,-0.3026679754257202,-0.5199591517448425,0.5896458625793457,0.53884357213974,-109.48750305175781,1.243749976158142,-81.5625,,,,Backward
1761152770.0081832,7.793692111968994,-14.13923168182373,1.8837947845458984,2.6683008670806885,-9.079885482788086,2.583010673522949,0.9749348163604736,-2.2179906368255615,-2.971957206726074,-0.27380451560020447,-0.5416448712348938,0.5794225335121155,0.5439865589141846,-112.6187515258789,0.8812500238418579,-82.0999984741211,,,,Backward
1761152770.038043,6.977460861206055,-13.107573509216309,2.8903205394744873,3.2206594944000244,-9.012603759765625,2.1532373428344727,-1.2669405937194824,-2.0261788368225098,-2.5431296825408936,-0.2582240700721741,-0.5688350200653076,0.5609462857246399,0.5432184934616089,-117.7249984741211,0.737500011920929,-80.8375015258789,,,,Backward
1761152770.0530853,5.586756229400635,-19.331037521362305,4.869860649108887,3.6206698417663574,-8.933310508728027,1.8228578567504883,-1.666446566581726,-1.5545909404754639,-2.1827192306518555,-0.24651552736759186,-0.5884912610054016,0.5464562177658081,0.5424883961677551,-120.6937484741211,1.5187500715255737,-78.01250457763672,,,,Backward
1761152770.0685136,3.553358793258667,-21.444622039794922,6.334768772125244,3.8628921508789062,-8.859917640686035,1.6781063079833984,-0.6853969693183899,-1.1563068628311157,-1.6243884563446045,-0.23599876463413239,-0.5989776253700256,0.5404958128929138,0.5416592359542847,-122.51875305175781,1.3937500715255737,-77.1500015258789,,,,Backward
1761152770.0978575,0.9706210494041443,-20.558975219726562,6.642351150512695,3.930623769760132,-8.846134185791016,1.5912961959838867,-0.28344762325286865,-0.9412822723388672,-0.7227513194084167,-0.23066936433315277,-0.6047196388244629,0.5405665636062622,0.5374882817268372,-123.8062515258789,1.524999976158142,-76.58125305175781,,,,Backward
1761152770.1119897,-0.7934917211532593,-20.507511138916016,6.243810176849365,3.8345117568969727,-8.903013229370117,1.5063180923461914,-0.07208823412656784,-0.7409184575080872,0.09580810368061066,-0.23230375349521637,-0.6076679825782776,0.5442530512809753,0.5296822786331177,-123.9000015258789,1.243749976158142,-75.7249984741211,,,,Backward
1761152770.1427102,-2.4905824661254883,-19.796600341796875,6.578919887542725,3.5530176162719727,-9.026472091674805,1.4611577987670898,-0.2626781761646271,-0.5124548673629761,0.976675808429718,-0.2401273101568222,-0.6065195798873901,0.5535564422607422,0.5177336931228638,-122.5875015258789,1.524999976158142,-75.8687515258789,,,,Backward
1761152770.1572993,-3.9830172061920166,-19.654178619384766,6.948737144470215,3.05877685546875,-9.20490837097168,1.4661712646484375,-0.07086650282144547,-0.49901580810546875,2.0298075675964355,-0.25321948528289795,-0.6009588241577148,0.5701493620872498,0.4996579885482788,-120.1812515258789,1.618749976158142,-75.7750015258789,,,,Backward
1761152770.1722894,-4.702305793762207,-17.83620834350586,7.189298152923584,2.3876943588256836,-9.367456436157227,1.6690692901611328,0.6401806473731995,-0.4953506290912628,3.0426220893859863,-0.26619553565979004,-0.586574912071228,0.5968753695487976,0.4783404469490051,-116.75,1.5750000476837158,-75.95625305175781,,,,Backward
1761152770.202758,-5.504175662994385,-15.696294784545898,6.765623569488525,1.5743992328643799,-9.460784912109375,2.0617785453796387,1.7666161060333252,-0.5613240599632263,3.79887318611145,-0.2776119112968445,-0.5637784004211426,0.6319791078567505,0.45352840423583984,-113.67500305175781,1.712499976158142,-78.28125,,,,Backward
1761152770.217151,-4.8578925132751465,-12.012482643127441,5.570000648498535,0.6608147621154785,-9.464598655700684,2.4941530227661133,2.2760777473449707,-0.6615059971809387,4.4586076736450195,-0.29050853848457336,-0.5371050238609314,0.6686185598373413,0.4243491291999817,-109.375,1.125,-80.1500015258789,,,,Backward
1761152770.2474365,-3.7017643451690674,-8.491437911987305,4.427037239074707,-0.2946903705596924,-9.368337631225586,2.8954291343688965,2.056166172027588,-0.577206552028656,4.776257514953613,-0.3056456744670868,-0.5089256763458252,0.7025538086891174,0.39242008328437805,-102.88750457763672,0.7875000238418579,-84.32500457763672,,,,Backward
1761152770.263462,-3.0243642330169678,-6.909242153167725,3.531816005706787,-1.2633705139160156,-9.175612449645996,3.232358455657959,1.8008246421813965,-0.4318206310272217,4.95707368850708,-0.32208889722824097,-0.48115548491477966,0.7330611348152161,0.3568885624408722,-98.9375,0.8062500357627869,-85.73750305175781,,,,Backward
1761152770.2773962,-2.774228811264038,-5.135554790496826,2.9357995986938477,-2.2197678089141846,-8.872666358947754,3.547468662261963,1.5613654851913452,-0.5613240599632263,5.14033317565918,-0.3384181261062622,-0.45239847898483276,0.7609047889709473,0.3191123902797699,-94.83125305175781,0.606249988079071,-87.46875,,,,Backward
1761152770.3074327,-2.569572687149048,-3.747243642807007,2.2356598377227783,-3.117058277130127,-8.491659164428711,3.7962846755981445,1.4599617719650269,-0.3951687216758728,5.013273239135742,-0.3555068373680115,-0.4244105815887451,0.7835564613342285,0.28201043605804443,-91.0625,-0.04374999925494194,-89.40625,,,,Backward
1761152770.323893,-3.9566872119903564,-3.0961735248565674,1.119026780128479,-3.9457883834838867,-8.106536865234375,3.866644859313965,0.9175134897232056,-0.1471574306488037,4.759153366088867,-0.37496262788772583,-0.4028974175453186,0.7984758615493774,0.24395312368869781,-87.8062515258789,-0.574999988079071,-90.1875,,,,Backward
1761152770.3657763,-6.7033891677856445,-2.962129592895508,0.4416266083717346,-4.661706924438477,-7.748045921325684,3.80426025390625,-0.18693089485168457,-0.02376265823841095,4.48670768737793,-0.3935902416706085,-0.38883116841316223,0.8071418404579163,0.20595933496952057,-83.78125,-0.9937500357627869,-90.70000457763672,,,,Backward
1761152770.3687768,-8.321490287780762,-4.248711109161377,2.2978944778442383,-5.198606491088867,-7.361451625823975,3.8755173683166504,-0.24923916161060333,-0.2339003086090088,3.773216962814331,-0.4042147397994995,-0.3729363679885864,0.8167023658752441,0.17471745610237122,-81.3812484741211,-1.443750023841858,-90.0562515258789,,,,Backward
1761152770.3818417,-7.737441539764404,-4.910552501678467,2.8340699672698975,-5.60042667388916,-6.934746742248535,4.09641695022583,0.6658369898796082,-0.7018230557441711,3.1965601444244385,-0.4077885150909424,-0.3534412682056427,0.8286945223808289,0.14850369095802307,-80.4437484741211,-1.725000023841858,-91.3125,,,,Backward
1761152770.4131608,-5.242071628570557,-2.7299466133117676,1.7186336517333984,-5.859470844268799,-6.617243766784668,4.256147861480713,0.8417661786079407,-0.9596081972122192,2.6993157863616943,-0.40840601921081543,-0.34099191427230835,0.8371612429618835,0.12684708833694458,-79.2874984741211,-1.806249976158142,-92.29375457763672,,,,Backward
1761152770.4397695,-3.5222413539886475,-1.3727525472640991,0.7192888259887695,-5.962264537811279,-6.5210652351379395,4.261835098266602,-0.15638764202594757,-0.8362134099006653,1.6669535636901855,-0.4068145155906677,-0.3424661457538605,0.8396973013877869,0.11012478172779083,-79.4375,-1.9812500476837158,-93.7249984741211,,,,Backward
1761152770.4431646,-1.8407092094421387,-2.411592483520508,1.4924346208572388,-5.864145278930664,-6.614302635192871,4.254281520843506,-1.0409204959869385,-0.9425039887428284,0.5881655216217041,-0.39830973744392395,-0.35286745429039,0.8405245542526245,0.10174651443958282,-80.23125457763672,-1.8875000476837158,-94.0687484741211,,,,Backward
1761152770.4721363,0.7707521319389343,-4.9955267906188965,1.566637396812439,-5.667133331298828,-6.776742935180664,4.2656145095825195,-0.8332263231277466,-1.1135462522506714,-0.3146933317184448,-0.3870880603790283,-0.3643505275249481,0.8409929275512695,0.10070961713790894,-81.8187484741211,-2.012500047683716,-93.1500015258789,,,,Backward
1761152770.5017173,3.917191982269287,-6.254581451416016,0.9801956415176392,-5.400545597076416,-7.03566837310791,4.191608905792236,-0.9346299767494202,-0.8924130201339722,-0.924336850643158,-0.37597715854644775,-0.38079074025154114,0.8382468819618225,0.10479386150836945,-82.7437515258789,-1.431249976158142,-92.98750305175781,,,,Backward
1761152770.5174253,5.447925090789795,-4.243924140930176,0.31835412979125977,-5.058921813964844,-7.370736598968506,4.039264678955078,-1.2669405937194824,-0.6175236701965332,-1.5645235776901245,-0.3645757734775543,-0.40150922536849976,0.8324378728866577,0.11367500573396683,-84.4749984741211,-1.3625000715255737,-93.2437515258789,,,,Backward
1761152770.5329325,5.768672466278076,-3.918388843536377,0.1735389083623886,-4.616320610046387,-7.738410949707031,3.8784899711608887,-1.5088433027267456,-0.5222287178039551,-2.0678765773773193,-0.3501707911491394,-0.42391034960746765,0.8255727291107178,0.12692540884017944,-87.48125457763672,-0.637499988079071,-92.30000305175781,,,,Backward
1761152770.562416,6.5382280349731445,-5.937424182891846,0.42606794834136963,-4.0383734703063965,-8.07015323638916,3.847111701965332,-1.0983418226242065,-0.6578407883644104,-2.683628797531128,-0.3305748999118805,-0.4411792457103729,0.820972740650177,0.14860977232456207,-90.5625,0.08125000447034836,-92.5562515258789,,,,Backward
1761152770.5911922,6.989428997039795,-7.036105155944824,0.2860400080680847,-3.3506994247436523,-8.35913372039795,3.8902206420898438,0.023206744343042374,-0.6969361305236816,-3.326258897781372,-0.3066660761833191,-0.455716609954834,0.8170813322067261,0.17508980631828308,-93.4937515258789,-0.10625000298023224,-91.8499984741211,,,,Backward
1761152770.5931985,7.1713457107543945,-5.249252796173096,-0.9550623893737793,-2.5790343284606934,-8.706706047058105,3.711869239807129,-0.6670709848403931,-0.9644951224327087,-3.599926710128784,-0.2810688614845276,-0.4814688563346863,0.8062952160835266,0.19767680764198303,-97.2750015258789,0.3499999940395355,-92.09375,,,,Backward
1761152770.6344216,8.004332542419434,-5.632235050201416,-0.8593168258666992,-1.7620699405670166,-9.046075820922852,3.3615050315856934,-1.960883617401123,-1.2613756656646729,-3.7208778858184814,-0.2542757987976074,-0.5138222575187683,0.7902815341949463,0.21629969775676727,-102.07500457763672,0.5250000357627869,-90.4000015258789,,,,Backward
1761152770.6377134,8.982134819030762,-11.33149242401123,1.7078622579574585,-0.908191442489624,-9.212393760681152,3.247014045715332,-1.9437793493270874,-1.365222692489624,-3.7294299602508545,-0.22283394634723663,-0.5337133407592773,0.7800036668777466,0.23893392086029053,-109.3375015258789,0.731249988079071,-88.3125,,,,Backward
1761152770.6673117,7.891831398010254,-14.219419479370117,3.7161262035369873,-0.03991532325744629,-9.156527519226074,3.5203042030334473,0.7403625249862671,-1.3994312286376953,-3.8662638664245605,-0.18427513539791107,-0.5353675484657288,0.7805564403533936,0.2648698389530182,-114.4937515258789,0.9625000357627869,-89.1812515258789,,,,Backward
1761152770.6819959,6.909242153167725,-9.556608200073242,1.7784745693206787,0.7860512733459473,-9.114522933959961,3.5417113304138184,1.330458402633667,-1.690203070640564,-3.6561262607574463,-0.14881448447704315,-0.5452879071235657,0.7742245197296143,0.2847662568092346,-117.7562484741211,0.6312500238418579,-89.46875,,,,Backward
1761152770.6979067,7.486109256744385,-7.062435150146484,0.21782125532627106,1.576649785041809,-9.192451477050781,3.0412421226501465,-1.3463531732559204,-1.757398247718811,-3.3665761947631836,-0.12177383899688721,-0.5745989084243774,0.7519809603691101,0.299219012260437,-122.1812515258789,0.59375,-87.9937515258789,,,,Backward
1761152770.743357,9.517112731933594,-16.27435874938965,1.5067964792251587,2.2838563919067383,-9.201987266540527,2.5186400413513184,-2.7598953247070312,-1.5045000314712524,-3.2627289295196533,-0.09936825931072235,-0.6014606356620789,0.7279424071311951,0.3138008713722229,-127.5062484741211,0.48750001192092896,-83.92500305175781,,,,Backward
1761152770.7463758,8.286782264709473,-23.730548858642578,3.974639415740967,2.8719992637634277,-9.093690872192383,2.300546646118164,-1.5271692276000977,-1.052459716796875,-3.150329828262329,-0.07658671587705612,-0.6139049530029297,0.7141271829605103,0.3275325298309326,-132.50625610351562,0.28125,-81.53125,,,,Backward
1761152770.7573671,6.144474029541016,-19.165876388549805,4.088337421417236,3.2419707775115967,-9.024433135986328,2.0701112747192383,-0.39095988869667053,-0.9815993905067444,-2.1582846641540527,-0.05990426987409592,-0.6252209544181824,0.7038934230804443,0.33172956109046936,-134.7062530517578,0.38750001788139343,-80.55000305175781,,,,Backward
1761152770.7873824,7.513636112213135,-19.943809509277344,2.177015781402588,3.4037070274353027,-9.037405014038086,1.7251710891723633,-1.1814194917678833,-1.1673023700714111,-1.1552438735961914,-0.0527973473072052,-0.6397524476051331,0.6929022073745728,0.3283533751964569,-136.375,0.11874999850988388,-78.45625305175781,,,,Backward
1761152770.803884,6.514291763305664,-25.323514938354492,2.3589322566986084,3.307128667831421,-9.12301254272461,1.438629150390625,-1.303592562675476,-0.9730472564697266,0.007843510247766972,-0.05438625067472458,-0.6509358882904053,0.6878961324691772,0.31642308831214905,-136.90000915527344,0.4937500059604645,-76.4124984741211,,,,Backward
1761152770.8326209,3.854957342147827,-24.575502395629883,2.9166505336761475,3.0141243934631348,-9.257556915283203,1.2036705017089844,-0.92363440990448,-0.929064929485321,1.0854097604751587,-0.062456563115119934,-0.6593557596206665,0.687374472618103,0.29810333251953125,-136.625,0.6875,-74.96875,,,,Backward
1761152770.863359,1.5953611135482788,-22.155532836914062,3.1835412979125977,2.5499377250671387,-9.419892311096191,0.9997730255126953,-0.904086709022522,-0.8044484257698059,1.9393993616104126,-0.07699000090360641,-0.6656693816184998,0.6894503235816956,0.27498188614845276,-133.93125915527344,0.675000011920929,-73.64375305175781,,,,Backward
1761152770.8666112,-1.067563533782959,-22.116037368774414,4.051235675811768,1.905783772468567,-9.58597469329834,0.8444976806640625,-0.7782484292984009,-0.6480669379234314,2.7665109634399414,-0.09780892729759216,-0.6688727140426636,0.6943720579147339,0.24675925076007843,-130.7375030517578,1.087499976158142,-72.4375,,,,Backward
1761152770.8935034,-3.434873580932617,-19.639816284179688,5.726783752441406,1.1143369674682617,-9.714351654052734,0.7910432815551758,-0.5180198550224304,-0.496572345495224,3.5569705963134766,-0.12276902049779892,-0.6667904853820801,0.7030337452888489,0.21462024748325348,-127.3187484741211,1.0187500715255737,-72.4937515258789,,,,Backward
1761152770.9075272,-5.735161781311035,-16.98766326904297,7.699143409729004,0.19872546195983887,-9.766117095947266,0.9053068161010742,0.10017576813697815,-0.4501465857028961,4.139736175537109,-0.1498919427394867,-0.6568031311035156,0.716995894908905,0.1790500283241272,-122.4937515258789,1.5437500476837158,-73.20625305175781,,,,Backward
1761152770.9363225,-6.770411014556885,-14.465964317321777,6.683043003082275,-0.8621143102645874,-9.708853721618652,1.1095170974731445,1.0946643352508545,-0.36706891655921936,4.726166725158691,-0.18152643740177155,-0.6407010555267334,0.7329442501068115,0.13907918334007263,-118.04375457763672,1.65625,-73.76250457763672,,,,Backward
1761152770.951888,-7.129456996917725,-10.72829532623291,3.3977720737457275,-2.0587117671966553,-9.545207977294922,0.9417123794555664,0.22601400315761566,-0.2082439661026001,5.523956775665283,-0.22049568593502045,-0.6351252198219299,0.7347911596298218,0.08988627791404724,-108.875,1.693750023841858,-74.1500015258789,,,,Backward
1761152770.9677665,-7.2204155921936035,-6.705782890319824,2.761063814163208,-3.2553179264068604,-9.238977432250977,0.5294370651245117,-2.1209301948547363,-0.32308661937713623,6.089617729187012,-0.2573527991771698,-0.6377969980239868,0.7252099514007568,0.03248128667473793,-102.48750305175781,1.587499976158142,-73.7562484741211,,,,Backward
1761152770.9978278,-6.243810176849365,-7.816431999206543,5.670533657073975,-4.324032306671143,-8.77213191986084,0.7671794891357422,-1.6444554328918457,-1.207619547843933,5.815950393676758,0.28360816836357117,0.6168180704116821,-0.7339678406715393,0.019827116280794144,-96.60625457763672,1.524999976158142,-74.0374984741211,,,,Backward
1761152771.0128267,-3.892058849334717,-9.439319610595703,4.270254135131836,-5.310430526733398,-8.037750244140625,1.852029800415039,3.3560874462127686,-1.739072322845459,5.742646217346191,0.30986303091049194,0.5564080476760864,-0.7687606811523438,0.058327000588178635,-92.17500305175781,1.068750023841858,-78.3812484741211,,,,Backward
1761152771.0429459,-1.5235519409179688,-3.829824209213257,-0.09813924133777618,-6.189697265625,-7.046532154083252,2.8757877349853516,6.499599933624268,-0.9437257051467896,5.923462390899658,0.3426892161369324,0.48578783869743347,-0.7995517253875732,0.08538948744535446,-87.4312515258789,0.0625,-84.5062484741211,,,,Backward
1761152771.0566998,-2.7646543979644775,1.7186336517333984,-1.053201675415039,-6.867856025695801,-6.101858139038086,3.440349578857422,5.5417633056640625,0.09352347254753113,5.11834192276001,0.372997522354126,0.4307246804237366,-0.8147878050804138,0.1070980504155159,-80.3187484741211,-1.5750000476837158,-90.63750457763672,,,,Backward
1761152771.0726068,-4.161343097686768,2.8197081089019775,-0.6391019225120544,-7.330802917480469,-5.4231791496276855,3.617257595062256,3.2155885696411133,0.5125770568847656,3.9638068675994873,0.3964022696018219,0.39811986684799194,-0.8178964257240295,0.12414170056581497,-78.3687515258789,-1.5500000715255737,-91.9375,,,,Backward
1761152771.103454,-4.441399097442627,0.4883025884628296,-0.39255696535110474,-7.633721351623535,-4.9916534423828125,3.6118998527526855,1.488061547279358,0.7361537218093872,2.583251476287842,0.41437867283821106,0.3797335624694824,-0.8161773681640625,0.13396775722503662,-75.96875,-2.674999952316284,-91.8499984741211,,,,Backward
1761152771.1174562,-4.209216117858887,-0.3937537968158722,1.102271318435669,-7.802048206329346,-4.71516227722168,3.6237287521362305,1.1398683786392212,0.8228965997695923,1.469033122062683,0.42733824253082275,0.3642614185810089,-0.8165928721427917,0.13368570804595947,-74.7125015258789,-2.7250001430511475,-91.7249984741211,,,,Backward
1761152771.148871,-3.126094102859497,0.4476107060909271,1.4134445190429688,-7.843301773071289,-4.600269794464111,3.681881904602051,1.5699175596237183,0.7312667965888977,0.3267151713371277,0.43517324328422546,0.35066312551498413,-0.8202093243598938,0.12213246524333954,-73.76250457763672,-3.018749952316284,-92.0625,,,,Backward
1761152771.1629846,-1.8945661783218384,0.5289944410324097,0.7168952226638794,-7.7732648849487305,-4.645865440368652,3.7720556259155273,1.8570241928100586,0.6188675761222839,-0.8327070474624634,0.4380037188529968,0.3404366374015808,-0.8258342742919922,0.10125923901796341,-73.1187515258789,-3.1625001430511475,-93.53125,,,,Backward
1761152771.1794748,-0.7109110951423645,0.2812527120113373,-0.019149120897054672,-7.581900119781494,-4.889598846435547,3.8526253700256348,1.682316780090332,0.40139955282211304,-1.80886971950531,0.43421170115470886,0.3392610549926758,-0.8310707807540894,0.0753893181681633,-74.4375,-3.1875,-94.23750305175781,,,,Backward
1761152771.2084224,0.6857779026031494,0.9107800722122192,-0.23577354848384857,-7.253142356872559,-5.3536376953125,3.8686699867248535,0.7354755997657776,0.13017538189888,-2.6934025287628174,0.4231852889060974,0.3517588973045349,-0.8335864543914795,0.048099782317876816,-74.45000457763672,-3.0375001430511475,-93.9312515258789,,,,Backward
1761152771.2234204,2.0824668407440186,0.4906962215900421,-0.10891062766313553,-6.777608871459961,-5.9896016120910645,3.797999858856201,-0.5033590793609619,-0.13494013249874115,-3.441101551055908,0.4054427444934845,0.37687957286834717,-0.8325499892234802,0.020941799506545067,-76.85625457763672,-2.268749952316284,-93.67500305175781,,,,Backward
1761152771.2534235,3.8537604808807373,-1.8227568864822388,-0.5756704211235046,-6.154670715332031,-6.712359428405762,3.646968364715576,-1.5674864053726196,-0.5210069417953491,-3.9407894611358643,-0.3818110525608063,-0.4102928042411804,0.8281563520431519,0.006106743589043617,-79.26875305175781,-1.681249976158142,-92.9312515258789,,,,Backward
1761152771.268399,5.493403911590576,-5.355769634246826,0.0945487841963768,-5.375434398651123,-7.39108419418335,3.5654869079589844,-1.7311981916427612,-0.7555792331695557,-4.424594879150391,-0.35252106189727783,-0.4404563009738922,0.8247885704040527,0.03809243068099022,-85.7249984741211,-0.762499988079071,-91.2562484741211,,,,Backward
1761152771.2817187,6.527456760406494,-9.378281593322754,0.7539966106414795,-4.46903133392334,-7.90864896774292,3.7036657333374023,-0.6304190754890442,-1.0952203273773193,-4.93649959564209,-0.3178040087223053,-0.458509236574173,0.8264310359954834,0.07603709399700165,-91.4625015258789,-0.24375000596046448,-91.0374984741211,,,,Backward
1761152771.3129733,7.522014141082764,-12.07711124420166,1.6970908641815186,-3.5911905765533447,-8.221697807312012,3.9677634239196777,0.722036600112915,-1.367666244506836,-4.682379722595215,-0.2812044024467468,-0.46764683723449707,0.8309675455093384,0.10827509313821793,-97.0875015258789,0.08749999850988388,-91.16875457763672,,,,Backward
1761152771.327915,9.062321662902832,-15.912919044494629,1.6396434307098389,-2.8214759826660156,-8.44875431060791,4.110222339630127,0.39827799797058105,-1.906449317932129,-3.7990686893463135,-0.2476559579372406,-0.47872233390808105,0.832201361656189,0.1301245242357254,-102.1812515258789,0.26875001192092896,-91.54375457763672,,,,Backward
1761152771.358119,11.786283493041992,-20.099395751953125,1.6767449378967285,-2.30171799659729,-8.61642074584961,4.086012840270996,0.11483652889728546,-1.318796992301941,-2.7447152137756348,-0.22794021666049957,-0.489679217338562,0.8287817239761353,0.14621368050575256,-105.6937484741211,0.22500000894069672,-90.60625457763672,,,,Backward
1761152771.3851054,8.424416542053223,-17.359874725341797,6.052319049835205,-1.9571914672851562,-8.83719253540039,3.782796859741211,-1.0164859294891357,-0.5002375245094299,-1.877286672592163,-0.21725653111934662,-0.5098985433578491,0.8181711435317993,0.1529679149389267,-108.64375305175781,0.08749999850988388,-88.76875305175781,,,,Backward
1761152771.3881083,3.2110681533813477,-19.790616989135742,6.691421031951904,-1.6749861240386963,-9.068434715270996,3.3457441329956055,-2.575413942337036,-0.6395148038864136,-1.2542040348052979,-0.20885714888572693,-0.5346508026123047,0.8041573166847229,0.15446089208126068,-110.33125305175781,0.6875,-86.9749984741211,,,,Backward
1761152771.4176047,1.3607844114303589,-21.74981117248535,8.770297050476074,-1.5558419227600098,-9.154764175415039,3.1631875038146973,-1.7776240110397339,-0.5039027333259583,-0.7313034534454346,-0.204044908285141,-0.5451083183288574,0.7985481023788452,0.15343905985355377,-110.58125305175781,0.7562500238418579,-85.90625,,,,Backward
1761152771.4324322,-0.26449722051620483,-20.131710052490234,9.395037651062012,-1.551087737083435,-9.201004028320312,3.028491497039795,-0.6267538666725159,-0.31086933612823486,-0.044690899550914764,-0.20369146764278412,-0.551500141620636,0.7948523759841919,0.15022334456443787,-111.36250305175781,0.706250011920929,-84.4124984741211,,,,Backward
1761152771.46145,-2.9836723804473877,-18.937284469604492,8.882798194885254,-1.6288105249404907,-9.235149383544922,2.8801212310791016,-0.9993816614151001,-0.016432275995612144,0.22286807000637054,-0.20805025100708008,-0.5567045211791992,0.7907964587211609,0.1464107483625412,-110.5999984741211,0.6187500357627869,-83.9437484741211,,,,Backward
1761152771.4771767,-6.292880058288574,-19.71282386779785,9.857009887695312,-1.8150911331176758,-9.217156410217285,2.825878143310547,-0.5668891072273254,0.36108243465423584,0.4867618680000305,-0.21718350052833557,-0.5556985139846802,0.7898155450820923,0.14220412075519562,-109.23750305175781,0.762499988079071,-83.15625,,,,Backward
1761152771.5062547,-8.625482559204102,-19.246063232421875,10.006612777709961,-2.1577630043029785,-9.15170669555664,2.7975759506225586,-0.15760937333106995,0.6335283517837524,1.1122878789901733,-0.23230363428592682,-0.5508602857589722,0.7903925180435181,0.13366970419883728,-107.45625305175781,0.706250011920929,-83.35625457763672,,,,Backward
1761152771.5222054,-10.500899314880371,-16.252817153930664,9.569772720336914,-2.6530308723449707,-8.997984886169434,2.86946439743042,0.16126228868961334,0.8485528826713562,1.8465478420257568,-0.25260820984840393,-0.5384580492973328,0.7946381568908691,0.12166482210159302,-103.8687515258789,0.90625,-83.96875,,,,Backward
1761152771.5372276,-12.032829284667969,-15.411452293395996,8.648221969604492,-3.289645195007324,-8.696020126342773,3.129472255706787,1.0677863359451294,1.0244821310043335,2.58080792427063,-0.2769429683685303,-0.5136131048202515,0.8049413561820984,0.10758078098297119,-100.76875305175781,0.793749988079071,-84.40625,,,,Backward
1761152771.567227,-12.85265064239502,-12.84546947479248,6.115750312805176,-4.087635040283203,-8.204421997070312,3.4949703216552734,2.444676637649536,1.2541674375534058,3.368824005126953,-0.30614572763442993,-0.47764188051223755,0.8187114596366882,0.08857012540102005,-97.33125305175781,0.2750000059604645,-86.20000457763672,,,,Backward
1761152771.5822232,-11.299178123474121,-8.551279067993164,3.8178560733795166,-4.952747821807861,-7.554688453674316,3.8253211975097656,2.7440004348754883,1.2114068269729614,4.298561096191406,-0.3371070325374603,-0.43747955560684204,0.8312271237373352,0.06349760293960571,-90.8687515258789,-0.6187500357627869,-89.23750305175781,,,,Backward
1761152771.597271,-8.666173934936523,-5.122389793395996,1.7413731813430786,-5.807358264923096,-6.792182922363281,4.046846389770508,2.6108319759368896,1.2028547525405884,4.7041754722595215,-0.3692762553691864,-0.3967036306858063,0.8396449089050293,0.03546527028083801,-86.34375,-1.375,-90.88750457763672,,,,Backward
1761152771.6417959,-7.453795433044434,-2.3361928462982178,0.8629072308540344,-6.616316795349121,-5.966254711151123,4.106612682342529,2.2956254482269287,1.3800057172775269,4.938747882843018,-0.4020913243293762,-0.35918670892715454,0.8421947360038757,0.003942589741200209,-81.4625015258789,-2.1812500953674316,-92.1624984741211,,,,Backward
1761152771.6528711,-6.187559604644775,-0.7384379506111145,-0.0885646864771843,-7.313259124755859,-5.187438488006592,3.980309009552002,1.2974716424942017,1.4032185077667236,4.948521614074707,0.4327295422554016,0.331474244594574,-0.8378085494041443,0.030773315578699112,-77.8812484741211,-2.762500047683716,-92.0250015258789,,,,Backward
1761152771.6718447,-5.613086223602295,0.3303223252296448,-0.5637022256851196,-7.866313934326172,-4.486957550048828,3.771529197692871,0.23578785359859467,1.3054801225662231,4.571006774902344,0.4590842127799988,0.3114688992500305,-0.829489529132843,0.0646224170923233,-74.5250015258789,-3.831249952316284,-92.2249984741211,,,,Backward
1761152771.6867945,-5.450318336486816,1.128601312637329,-0.7731457352638245,-8.277021408081055,-3.8601157665252686,3.581414222717285,-0.06597958505153656,1.1539855003356934,3.9173810482025146,0.4808954894542694,0.29359936714172363,-0.8210064768791199,0.09212617576122284,-70.6624984741211,-3.8375000953674316,-91.5687484741211,,,,Backward
1761152771.7017963,-5.386887073516846,1.8837947845458984,-1.177670955657959,-8.560783386230469,-3.353986978530884,3.4205069541931152,0.21501843631267548,0.9988257884979248,3.1220345497131348,0.49796009063720703,0.27874359488487244,-0.8134965300559998,0.11207648366689682,-69.30000305175781,-4.650000095367432,-91.4749984741211,,,,Backward
1761152771.7327907,-5.055367946624756,2.2548089027404785,-1.0448238849639893,-8.737360954284668,-3.0060877799987793,3.2951574325561523,0.1527101695537567,0.8119009733200073,2.1580891609191895,0.5103215575218201,0.26762476563453674,-0.8079039454460144,0.1234508827328682,-67.66875457763672,-5.206250190734863,-90.80000305175781,,,,Backward
1761152771.747106,-4.680763244628906,2.486992120742798,-0.6127718687057495,-8.826532363891602,-2.8245866298675537,3.217163562774658,0.4618079960346222,0.6323066353797913,1.1611571311950684,0.5181382894515991,0.25992125272750854,-0.8050456047058105,0.12599687278270721,-67.0,-5.325000286102295,-90.7750015258789,,,,Backward
1761152771.7772381,-4.044054985046387,2.9166505336761475,-0.42606794834136963,-8.834314346313477,-2.8415184020996094,3.1806883811950684,0.3860607147216797,0.37085628509521484,0.16300328075885773,0.5203173756599426,0.25914323329925537,-0.8044586777687073,0.12231456488370895,-66.38750457763672,-5.518750190734863,-90.4437484741211,,,,Backward
1761152771.792193,-3.1967062950134277,2.9729011058807373,-0.5242071747779846,-8.761610984802246,-3.0722460746765137,3.1672658920288086,-0.024440744891762733,0.05931501463055611,-0.8253766894340515,0.5164348483085632,0.26807570457458496,-0.8051497340202332,0.1147359162569046,-66.875,-5.0625,-90.5875015258789,,,,Backward
1761152771.8071918,-2.1243555545806885,2.4881889820098877,-0.45957890152931213,-8.600507736206055,-3.5043444633483887,3.160214900970459,-0.751370370388031,-0.26200011372566223,-1.7111313343048096,0.5064409375190735,0.28713494539260864,-0.8063220977783203,0.10447894781827927,-67.5875015258789,-4.950000286102295,-91.11250305175781,,,,Backward
1761152771.8372111,-0.7887043952941895,1.8227568864822388,-0.45000433921813965,-8.338690757751465,-4.098371505737305,3.1473326683044434,-1.3671225309371948,-0.5368894934654236,-2.5394644737243652,0.4909358322620392,0.3139546513557434,-0.8075541257858276,0.0909445658326149,-68.70625305175781,-4.300000190734863,-91.4124984741211,,,,Backward
1761152771.8521876,0.6654319763183594,0.8641040921211243,-0.3961474299430847,-7.958702564239502,-4.821748733520508,3.105785369873047,-1.7421938180923462,-0.7433618903160095,-3.1772079467773438,0.4703426957130432,0.3471035063266754,-0.8079937100410461,0.07377738505601883,-70.16875457763672,-3.5375001430511475,-91.09375,,,,Backward
1761152771.882136,2.0333971977233887,-0.7085174918174744,-0.5134357810020447,-7.437127113342285,-5.631326198577881,3.035362720489502,-2.036630868911743,-0.871643602848053,-3.7990686893463135,0.44473597407341003,0.3840603232383728,-0.807471513748169,0.05193665996193886,-74.125,-2.543750047683716,-90.8062515258789,,,,Backward
1761152771.8962524,3.324766159057617,-3.5964443683624268,-0.8102471828460693,-6.748365879058838,-6.461014747619629,2.9918160438537598,-1.93034029006958,-1.0500162839889526,-4.420929431915283,0.413572758436203,0.4200827479362488,-0.8074145317077637,0.02387326769530773,-78.2437515258789,-1.1125000715255737,-89.95000457763672,,,,Backward
1761152771.9124856,5.146326065063477,-7.342491149902344,-0.8988118767738342,-5.914303779602051,-7.251617908477783,2.9446849822998047,-1.4697479009628296,-1.2955840826034546,-4.9829254150390625,-0.37852373719215393,-0.4545699954032898,0.8062371611595154,0.008221656084060669,-83.75,-0.6187500357627869,-89.01250457763672,,,,Backward
1761152771.9414816,7.119882583618164,-10.2004976272583,1.101074457168579,-5.020798683166504,-7.925950050354004,2.8647875785827637,-1.4049961566925049,-1.2027325630187988,-5.158854961395264,-0.3430352210998535,-0.4861205518245697,0.8027512431144714,0.04005157947540283,-88.8812484741211,-0.23749999701976776,-88.11250305175781,,,,Backward
1761152771.9574845,7.8738789558410645,-13.64374828338623,0.4452170729637146,-4.0956854820251465,-8.474114418029785,2.7660183906555176,-1.4709696769714355,-1.3517837524414062,-4.816770076751709,-0.30594170093536377,-0.5151894092559814,0.7976759672164917,0.06850259006023407,-94.80000305175781,0.4124999940395355,-86.1937484741211,,,,Backward
1761152771.9878786,7.812841415405273,-16.863195419311523,1.3141083717346191,-3.163024663925171,-8.81390380859375,2.9234352111816406,-0.8576609492301941,-1.4605177640914917,-4.682379722595215,-0.26788538694381714,-0.5284265279769897,0.7993577122688293,0.10015002638101578,-102.82500457763672,0.918749988079071,-85.78125,,,,Backward
1761152772.0020654,6.540621757507324,-18.00615692138672,3.670647144317627,-2.31722092628479,-8.944254875183105,3.2964954376220703,1.5063875913619995,-1.4311962127685547,-4.234004974365234,-0.23069316148757935,-0.5279806852340698,0.8070863485336304,0.12895216047763824,-108.26875305175781,0.90625,-87.28125,,,,Backward
1761152772.017067,5.597527503967285,-15.131396293640137,3.4659907817840576,-1.5549134016036987,-9.102591514587402,3.3107666969299316,0.8100011944770813,-1.6926465034484863,-3.4362146854400635,-0.19754081964492798,-0.5405859351158142,0.8043858408927917,0.14733567833900452,-111.7125015258789,0.956250011920929,-87.9749984741211,,,,Backward
1761152772.0468218,5.658565044403076,-13.059700012207031,3.462400436401367,-0.8643231391906738,-9.292227745056152,3.023831844329834,-1.254723310470581,-1.5790256261825562,-3.085578203201294,-0.1702297329902649,-0.5629404783248901,0.7925097346305847,0.1613946110010147,-115.09375,0.84375,-86.8125,,,,Backward
1761152772.061817,4.6592206954956055,-16.12714958190918,5.352179527282715,-0.2315511703491211,-9.38780403137207,2.8375368118286133,-1.6114686727523804,-1.2369409799575806,-2.820462465286255,-0.14546345174312592,-0.5781139135360718,0.7832099199295044,0.1766548454761505,-118.9749984741211,1.037500023841858,-84.8062515258789,,,,Backward
1761152772.0918756,3.2900583744049072,-17.534610748291016,6.881715297698975,0.3101041316986084,-9.394693374633789,2.8070755004882812,-0.4618202745914459,-0.9547212719917297,-2.635981321334839,-0.12346066534519196,-0.5845385789871216,0.7787138819694519,0.1915118396282196,-123.1312484741211,0.856249988079071,-83.96875,,,,Backward
1761152772.1072557,3.5306191444396973,-16.830881118774414,7.034908294677734,0.7637488842010498,-9.357706069946289,2.8436126708984375,-0.017110362648963928,-0.6725015640258789,-2.1570630073547363,-0.10575442016124725,-0.5864142179489136,0.7761155366897583,0.2063468098640442,-124.9124984741211,1.0125000476837158,-83.2750015258789,,,,Backward
1761152772.1218033,1.6228879690170288,-16.31505012512207,6.867353439331055,1.1630620956420898,-9.279479026794434,2.9622063636779785,0.2785484194755554,-0.2998737394809723,-2.0287811756134033,-0.09082147479057312,-0.5837572813034058,0.7756267189979553,0.22222073376178741,-126.78125,0.8187500238418579,-83.75,,,,Backward
1761152772.151849,-0.30638593435287476,-18.098312377929688,6.2689433097839355,1.4856038093566895,-9.189359664916992,3.095925807952881,0.8087794780731201,-0.0616363026201725,-2.1289632320404053,-0.07951144129037857,-0.5795546174049377,0.7756263613700867,0.23706138134002686,-128.2687530517578,0.2750000059604645,-84.11250305175781,,,,Backward
1761152772.166751,-1.2243468761444092,-18.925315856933594,7.131850719451904,1.564971685409546,-9.222068786621094,2.9564194679260254,0.13560594618320465,0.0947451964020729,-1.2065565586090088,-0.08065147697925568,-0.585500955581665,0.7694244980812073,0.24221879243850708,-129.1374969482422,0.2562499940395355,-83.85625457763672,,,,Backward
1761152772.1967928,-1.9232897758483887,-20.445276260375977,8.299946784973145,1.4719526767730713,-9.292967796325684,2.776726245880127,-1.4294308423995972,0.4038430154323578,-0.13754241168498993,-0.08945557475090027,-0.5920071005821228,0.7634891867637634,0.24209409952163696,-128.3937530517578,0.2562499940395355,-81.8062515258789,,,,Backward
1761152772.2117505,-4.419856548309326,-24.48454475402832,9.862994194030762,1.1661957502365112,-9.29754638671875,2.903744697570801,-0.2663433849811554,0.5467854738235474,0.6944560408592224,-0.10126886516809464,-0.584589958190918,0.769903838634491,0.23504751920700073,-127.4375,0.512499988079071,-82.4000015258789,,,,Backward
1761152772.226751,-4.997920513153076,-21.96164894104004,8.137179374694824,0.6059902906417847,-9.27912712097168,3.1251697540283203,1.1997332572937012,0.5235726237297058,1.9503949880599976,-0.12081383168697357,-0.5710684061050415,0.781740665435791,0.21946834027767181,-124.9124984741211,0.5687500238418579,-83.41875457763672,,,,Backward
1761152772.2567444,-4.935686111450195,-17.546579360961914,7.498077869415283,-0.16070270538330078,-9.292708396911621,3.139404773712158,0.6096373796463013,0.9817215204238892,2.9937527179718018,-0.151364266872406,-0.5630971789360046,0.7880889177322388,0.19729764759540558,-120.8125,0.956250011920929,-84.53125,,,,Backward
1761152772.2717428,-7.273075580596924,-16.395238876342773,7.705127716064453,-1.110657811164856,-9.201457977294922,3.2149205207824707,-0.1698266714811325,1.2224024534225464,3.899055004119873,-0.18686915934085846,-0.5488356351852417,0.7972058057785034,0.16829214990139008,-115.95000457763672,0.706250011920929,-84.5999984741211,,,,Backward
1761152772.301745,-7.744622707366943,-15.333658218383789,8.092897415161133,-2.166555404663086,-8.888527870178223,3.540651321411133,1.1740769147872925,1.102672815322876,4.823904991149902,-0.22135397791862488,-0.5201356410980225,0.8139307498931885,0.13408222794532776,-108.2562484741211,0.29375001788139343,-86.8125,,,,Backward
1761152772.329604,-5.206167221069336,-11.38654613494873,6.437695026397705,-3.252734422683716,-8.369622230529785,3.9503464698791504,2.3506033420562744,0.8778744339942932,5.308932304382324,-0.2559730112552643,-0.48284053802490234,0.8317565321922302,0.09759031981229782,-102.6624984741211,0.09375,-88.8812484741211,,,,Backward
1761152772.3321543,-3.7771639823913574,-6.505913734436035,4.265466690063477,-4.2986063957214355,-7.6821160316467285,4.329339504241943,2.5705149173736572,1.0892338752746582,5.555721759796143,-0.29121631383895874,-0.44105958938598633,0.8466306328773499,0.06225817650556564,-96.85625457763672,-0.19375000894069672,-91.48750305175781,,,,Backward
1761152772.361508,-3.237398147583008,-4.355227947235107,2.755079746246338,-5.252791404724121,-6.86555290222168,4.637722969055176,2.8759474754333496,1.2590543031692505,5.411557674407959,-0.3259052038192749,-0.3967473804950714,0.8576110601425171,0.029675163328647614,-91.45625305175781,-1.0187500715255737,-94.2562484741211,,,,Backward
1761152772.3765917,-3.2170522212982178,-2.236856698989868,2.078876495361328,-6.065866947174072,-6.0325212478637695,4.8010478019714355,2.809973955154419,1.3848925828933716,5.081690311431885,0.3581354320049286,0.35642293095588684,-0.8629609942436218,0.00031032066908665,-86.9625015258789,-1.4187500476837158,-95.33125305175781,,,,Backward
1761152772.4066806,-3.656285285949707,-0.1890975683927536,1.6743512153625488,-6.727639675140381,-5.29086446762085,4.79392671585083,1.9449888467788696,1.4313184022903442,4.512363910675049,0.3872430622577667,0.32512158155441284,-0.8623090982437134,0.027601346373558044,-81.375,-2.762500047683716,-96.0625,,,,Backward
1761152772.421677,-4.0105438232421875,0.009574560448527336,1.122617244720459,-7.240570545196533,-4.6724677085876465,4.688101291656494,1.2082853317260742,1.455752968788147,3.7744386196136475,0.4126533269882202,0.3012843132019043,-0.8581947088241577,0.04946625232696533,-78.9437484741211,-3.0625,-96.1875,,,,Backward
1761152772.4509947,-4.904568672180176,-0.0670219212770462,1.0891062021255493,-7.5954790115356445,-4.176417350769043,4.593730926513672,1.0763384103775024,1.3384668827056885,2.8874623775482178,0.4322856664657593,0.2810586988925934,-0.8544871211051941,0.06314282864332199,-77.0374984741211,-3.674999952316284,-96.29375457763672,,,,Backward
1761152772.4803636,-4.762146949768066,-0.009574560448527336,0.4631693661212921,-7.801497459411621,-3.876901626586914,4.510252952575684,1.0091432332992554,0.9963822960853577,1.802565574645996,0.44526320695877075,0.26806771755218506,-0.8515484929084778,0.06888782978057861,-75.13750457763672,-4.400000095367432,-96.1812515258789,,,,Backward
1761152772.4843018,-4.1757049560546875,0.6905651688575745,-0.08138376474380493,-7.892140865325928,-3.782531261444092,4.432008266448975,0.5949766039848328,0.7092756628990173,0.7347731590270996,0.45214664936065674,0.26395276188850403,-0.8491671681404114,0.06933692842721939,-74.2874984741211,-4.200000286102295,-95.9000015258789,,,,Backward
1761152772.5123062,-3.3235692977905273,1.3619812726974487,-0.44641387462615967,-7.862654209136963,-3.933586597442627,4.352203845977783,-0.17227013409137726,0.3232088088989258,-0.18641163408756256,0.4516087472438812,0.2724420726299286,-0.8469567894935608,0.0670006051659584,-74.1312484741211,-4.268750190734863,-96.7125015258789,,,,Backward
1761152772.5262973,-1.3643748760223389,1.311714768409729,-0.4643661677837372,-7.686239719390869,-4.332184791564941,4.288356781005859,-1.1765326261520386,-0.18380935490131378,-1.2090001106262207,0.4421369135379791,0.2931625545024872,-0.8454737067222595,0.061195358633995056,-74.9625015258789,-3.893749952316284,-95.88750457763672,,,,Backward
1761152772.5417225,1.8107887506484985,0.09694242477416992,-0.40691882371902466,-7.371614933013916,-4.893256664276123,4.23691463470459,-1.8582582473754883,-0.6993796229362488,-2.0874242782592773,0.42557430267333984,0.32083913683891296,-0.8446161150932312,0.05071845278143883,-76.2562484741211,-3.075000047683716,-95.86250305175781,,,,Backward
1761152772.5737498,4.690337657928467,-1.5450947284698486,-0.2716781497001648,-6.949315071105957,-5.477166652679443,4.236010551452637,-1.6969897747039795,-0.8728653192520142,-2.756932497024536,0.40615642070770264,0.3451583683490753,-0.8455341458320618,0.031221436336636543,-77.9437484741211,-2.625,-96.4625015258789,,,,Backward
1761152772.58677,6.253384590148926,-2.8472349643707275,-0.1436184048652649,-6.4333577156066895,-6.014237403869629,4.321685314178467,-0.6035410165786743,-0.767796516418457,-3.409336566925049,0.3854922950267792,0.36211368441581726,-0.8486843705177307,0.0020342557691037655,-80.33125305175781,-2.0250000953674316,-96.4375,,,,Backward
1761152772.6165235,5.921865463256836,-2.6832704544067383,-0.0610378235578537,-5.83031702041626,-6.574385166168213,4.361305236816406,-0.032992858439683914,-0.7470270991325378,-3.7660820484161377,-0.36237022280693054,-0.3826213479042053,0.8494204878807068,0.02781541459262371,-84.45000457763672,-1.537500023841858,-96.51250457763672,,,,Backward
1761152772.6325138,6.826661586761475,-3.621577501296997,-0.38896653056144714,-5.120177745819092,-7.243618965148926,4.1892571449279785,-1.2901535034179688,-0.9400604963302612,-4.0030975341796875,-0.33599939942359924,-0.4166349470615387,0.8430061936378479,0.05348162725567818,-88.5562515258789,-1.0750000476837158,-95.54375457763672,,,,Backward
1761152772.6475203,8.112046241760254,-8.159918785095215,1.9173057079315186,-4.315939903259277,-7.841019630432129,4.015866279602051,-2.3591678142547607,-1.0842247009277344,-4.277987003326416,-0.30696019530296326,-0.44843414425849915,0.8355005979537964,0.08136957138776779,-92.96875,-0.012500000186264515,-94.2125015258789,,,,Backward
1761152772.6775062,8.407660484313965,-14.66702938079834,2.802952527999878,-3.4979147911071777,-8.28101921081543,3.927521228790283,-1.1349937915802002,-1.1184331178665161,-4.328077793121338,-0.2774643301963806,-0.47205305099487305,0.8295187950134277,0.10990025848150253,-98.8187484741211,0.08125000447034836,-92.66875457763672,,,,Backward
1761152772.7044559,7.3915605545043945,-14.1978759765625,2.6605310440063477,-2.718123197555542,-8.660601615905762,3.7204718589782715,-1.1863064765930176,-1.080559492111206,-3.8797028064727783,-0.24998623132705688,-0.4978758990764618,0.8196690082550049,0.13330143690109253,-102.6875,0.26250001788139343,-91.63750457763672,,,,Backward
1761152772.7211957,6.371870040893555,-15.176875114440918,2.879549026489258,-1.979772925376892,-8.963282585144043,3.4606595039367676,-1.824049711227417,-1.1037724018096924,-3.5974831581115723,-0.22368931770324707,-0.5230476260185242,0.8081277012825012,0.1526891142129898,-109.95625305175781,0.45625001192092896,-87.96875,,,,Backward
1761152772.7372296,5.695666790008545,-21.310577392578125,5.287550926208496,-1.2999554872512817,-9.117049217224121,3.380180835723877,-1.1618717908859253,-1.1954021453857422,-3.213859796524048,-0.19655847549438477,-0.5376638174057007,0.8021103739738464,0.17000390589237213,-114.09375,0.9312500357627869,-87.4000015258789,,,,Backward
1761152772.7522407,4.428234100341797,-19.408830642700195,5.680108070373535,-0.7458504438400269,-9.23097038269043,3.2355852127075195,-0.4691506326198578,-1.317575216293335,-2.5394644737243652,-0.17365886270999908,-0.5522046685218811,0.7950378060340881,0.1811838299036026,-117.17500305175781,0.699999988079071,-86.46875,,,,Backward
